"Sub.Num","Months","Sex","Order","Tr.Num","Prescreen.Notes","L.image","C.Image","R.image","Target.Side","Target.Image","Condition","Response","First.Shift.Gap","RT","CritOnSet","CritOffSet","0","33","67","100","133","167","200","233","267","300","333","367","400","433","467","500","533","567","600","633","667","700","733","767","800","833","867","900","933","967","1000","1033","1067","1100","1133","1167","1200","1233","1267","1300","1333","1367","1400","1433","1467","1500","1533","1567","1600","1633","1667","1700","1733","1767","1800","1833","1867","1900","1933","1967","2000","2033","2067","2100","2133","2167","2200","2233","2267","2300","2333","2367","2400","2433","2467","2500","2533","2567","2600","2633","2667","2700","2733","2767","2800","2833","2867","2900","2933","2967","3000","3033","3067","3100","3133","3167","3200","3233","3267","3300","3333","3367","3400","3433","3467","3500","3533","3567","3600","3633","3667","3700","3733","3767","3800","3833","3867","3900","3933","3967","4000","4033","4067","4100","4133","4167","4200","4233","4267","4300","4333","4367","4400","4433","4467","4500","4533","4567","4600","4633","4667","4700","4733","4767","4800","4833","4867","4900","4933","4967","5000","5033","5067","Block","Offset","StartWindowRT","EndWindowRT","StartWindowAcc","EndWindowAcc","StudyName","Directory","stimuli","include","reason_excluded","age_code","signs_produced","clean_target_img","parent_report_unknown_signs","unknown_trial","good_trials","exclude_few_trials","age_group","trial_types","longestLook","longestGap","Gap","longestGapPosition","firstGap","durationLongestLook","StartlongestLook_T","NumberOfShifts","FirstFixation","Accuracy","GoodFirstGap","GoodRT","GoodLongestGap"
"30009",39,"F","sol-vanilla-1",2,"","doll1R.pct","","teddy1R.pct","l","doll1R.pct","Vanilla","D",1,900,1924,8000,"0.5","0.5","0.5","0.5","0.5","0.5","0.5","0.5","0.5","0.5","0.5","0.5","0.5","0.5","0.5","0.5","0.5","0.5","0.5","0.5","0.5","0.5","0.5","0.5","0.5","0.5","0.5",".","1","1","1","1","1","1","1","1","1","1","1","1","1","1","1","1","1","1","1","1","1","1","1","1","1","1","1","1","1","1","1","1","1","1","1","1","1","1","1","1","1","1","1",".",".",".",".","0.5","0.5","0.5","0.5","0.5","0.5","0.5","0.5","0.5","0.5","0.5","0.5",".",".","0","0","0","0","0","0","0","0","0","0","0","0","0","0","0","0","0","0","0","0","0","0","0",".",".","0.5","0.5","0.5","0.5","","","","","","","","","","","","","","","","","","","","","","","","","","","","","",NA,NA,NA,NA,NA,900,NA,0,0,2500,0,2500,"sol-ichart-v1-processed","./","V1","yes","OK","child",81,"doll","none","known_sign",31,"include","> 26.5 Months","C_T","1",4,5,2367,1,43,900,2,43,0.802816901408451,TRUE,TRUE,TRUE
"30009",39,"F","sol-vanilla-1",3,"","book1R.pct","","car1L.pct","r","car1L.pct","Vanilla","D",2,900,1891,8000,"0.5","0.5","0.5","0.5","0.5","0.5","0.5","0.5","0.5","0.5","0.5","0.5","0.5","0.5","0.5","0.5","0.5","0.5","0.5","0.5","0.5","0.5","0.5","0.5","0.5","0.5","0.5",".",".","0","0","0","0","0","0","0","0",".",".",".","1","1","1","1","1","1","1","1","1","1","1","1","1","1","1","1","1","1","1","1","1","1","1","1","1","1","1","1","1","1","1",".",".",".","0","0","0","0","0","0","0","0","0","0","0","0","0","0","0","0","0","0",".",".","0.5","0.5","0.5","0.5","0.5","0.5","0.5","0.5","0.5","0.5","0.5","","","","","","","","","","","","","","","","","","","","","","","","","","","","","","","","","","","","","","","","","","",NA,NA,NA,NA,NA,900,NA,0,0,2500,0,2500,"sol-ichart-v1-processed","./","V1","yes","OK","child",81,"car","none","known_sign",31,"include","> 26.5 Months","C_D","1",3,8,1233,2,31,1233,3,8,0.654411764705882,TRUE,TRUE,TRUE
"30009",39,"F","sol-vanilla-1",4,"","ball1R.pct","","shoe1L.pct","l","ball1R.pct","Vanilla","D",2,767,2198,8000,"0.5","0.5","0.5","0.5","0.5","0.5","0.5","0.5","0.5","0.5","0.5","0.5","0.5","0.5","0.5","0.5","0.5","0.5","0.5","0.5","0.5","0.5","0.5",".",".","1","1","1","1","1","1",".",".","0.5","0.5","0.5","0.5","0.5","0.5","0.5","0.5","0.5","0.5","0.5","0.5","0.5","0.5","0.5","0.5","0.5","0.5","0.5","0.5","0.5","0.5",".",".","1","1","1","1","1","1","1","1","1","1","1","1","1","1","1",".",".","0","0","0","0","0","0","0","0","0","0","0","0","0","0","0","0","0","0","0","0","0","0","0","0","0","0","0","0","0","0","0","0","0","0","0","0","0","0",".",".","0.5","0.5","0.5","0.5","0.5","0.5","0.5","0.5","0.5","0.5","0.5","0.5","0.5","0.5","0.5","0.5","0.5","0.5","0.5","0.5","","","","","","","","","","","","","",NA,NA,NA,NA,NA,767,NA,0,0,2500,0,2500,"sol-ichart-v1-processed","./","V1","yes","OK","child",81,"ball","none","known_sign",31,"include","> 26.5 Months","C_T","1",4,8,1767,2,15,1033,3,6,0.639705882352941,TRUE,TRUE,TRUE
"30009",39,"F","sol-vanilla-1",5,"","doll2R.pct","","teddy3.pct","r","teddy3.pct","Vanilla","D",2,833,2099,8000,"0.5","0.5","0.5","0.5","0.5","0.5","0.5","0.5","0.5","0.5","0.5","0.5","0.5","0.5","0.5","0.5","0.5","0.5","0.5","0.5","0.5","0.5","0.5","0.5","0.5",".",".","0","0","0","0","0","0","0","0","0","0","0","0","0","0","0",".",".","0.5","0.5","0.5",".",".","0","0","0","0","0","0","0","0","0","0",".",".","1","1","1","1","1","1","1","1","1","1","1","1","1","1","1","1","1","1","1","1","1","1",".",".",".",".",".",".",".",".",".","0","0","0","0","0","0","0","0","0","0","0","0","0","0","0","0","0","0","0","0","0","0","0","0","0","0","0","0","0","0","0","","","","","","","","","","","","","","","","","","","","","","","","",NA,NA,NA,NA,NA,833,NA,0,0,2500,0,2500,"sol-ichart-v1-processed","./","V1","yes","OK","child",81,"teddy","none","known_sign",31,"include","> 26.5 Months","C_D","0",4,8,1500,2,15,1967,3,15,0.426470588235294,TRUE,TRUE,TRUE
"30009",39,"F","sol-vanilla-1",6,"","ball2R.pct","","shoe2L.pct","r","shoe2L.pct","Vanilla","D",2,633,1891,8000,"0.5","0.5","0.5","0.5","0.5","0.5","0.5","0.5","0.5","0.5","0.5","0.5","0.5","0.5","0.5","0.5","0.5","0.5","0.5",".",".","1","1","1","1","1","1","1","1","1","1","1","1","1","1","1","1","1","1","1","1","1","1","1","1","1","1",".",".","0.5","0.5","0.5","0.5","0.5","0.5","0.5",".",".","1","1","1","1","1","1","1","1","1","1","1","1","1","1","1","1","1","1","1","1","1","1","1","1","1","1","1","1","1","1","1","1","1","1","1","1","1","1","1","1","1","1","1","1","1","1","1","1","1","1","1","1","1","1","1","1","1","1","1","1","1","1","1","","","","","","","","","","","","","","","","","","","","","","","","","","",NA,NA,NA,NA,NA,633,NA,0,0,2500,0,2500,"sol-ichart-v1-processed","./","V1","yes","OK","child",81,"shoe","none","known_sign",31,"include","> 26.5 Months","C_T","1",4,6,1800,2,26,633,2,26,0.814285714285714,TRUE,TRUE,TRUE
"30009",39,"F","sol-vanilla-1",7,"","kitty1R.pct","","birdy1L.pct","r","birdy1L.pct","Vanilla","D",1,833,2000,8000,"0.5","0.5","0.5","0.5","0.5","0.5","0.5","0.5","0.5","0.5","0.5","0.5","0.5","0.5","0.5","0.5","0.5","0.5","0.5","0.5","0.5","0.5","0.5","0.5","0.5",".","1","1","1","1","1","1","1","1","1","1","1","1","1","1","1","1","1","1","1","1","1","1","1","1","1","1","1","1","1","1","1","1","1","1","1","1","1","1","1","1","1","1","1","1","1","1","1","1","1","1","1","1","1","1","1","1",".",".","0.5","0.5","0.5","0.5","0.5","0.5","0.5","0.5","0.5","0.5","0.5","0.5","","","","","","","","","","","","","","","","","","","","","","","","","","","","","","","","","","","","","","","","","","","","","","","","","","","",NA,NA,NA,NA,NA,833,NA,0,0,2500,0,2500,"sol-ichart-v1-processed","./","V1","yes","OK","child",81,"birdy","none","known_sign",31,"include","> 26.5 Months","C_T","1",1,1,833,1,50,833,1,50,0.833333333333333,TRUE,TRUE,TRUE
"30009",39,"F","sol-vanilla-1",8,"","book2R.pct","","car2L.pct","l","book2R.pct","Vanilla","D",2,967,2231,8000,"0.5","0.5","0.5","0.5","0.5","0.5","0.5","0.5","0.5","0.5","0.5","0.5","0.5","0.5","0.5","0.5","0.5","0.5","0.5","0.5","0.5","0.5","0.5","0.5","0.5","0.5","0.5","0.5","0.5",".",".","1","1","1","1","1","1","1","1","1","1","1","1","1","1","1","1","1","1","1","1","1","1","1","1","1","1","1","1","1","1","1","1","1","1","1","1","1","1","1","1","1","1",".",".","0","0","0","0","0","0","0","0","0","0","0","0","0","0","0","0","0","0","0","0","0","0",".",".","0.5","0.5","0.5","0.5","0.5","0.5","0.5","0.5","0.5","0.5","0.5","0.5","0.5","0.5","0.5","0.5","","","","","","","","","","","","","","","","","","","","","","","","","","","","","","","","",NA,NA,NA,NA,NA,967,NA,0,0,2500,0,2500,"sol-ichart-v1-processed","./","V1","yes","OK","child",81,"book","none","known_sign",31,"include","> 26.5 Months","C_T","1",2,4,967,2,42,967,2,42,0.784722222222222,TRUE,TRUE,TRUE
"30009",39,"F","sol-vanilla-1",9,"","kitty2R.pct","","birdy2L.pct","l","kitty2R.pct","Vanilla","D",2,NA,3132,8000,"0.5","0.5","0.5","0.5","0.5","0.5","0.5","0.5","0.5","0.5","0.5","0.5","0.5","0.5","0.5","0.5","0.5","0.5","0.5","0.5","0.5","0.5","0.5","0.5","0.5","0.5","0.5","0.5","0.5","0.5","0.5","0.5","0.5","0.5","0.5","0.5","0.5","0.5","0.5","0.5","0.5","0.5","0.5","0.5","0.5","0.5","0.5","0.5","0.5","0.5","0.5","0.5","0.5","0.5","0.5","0.5","0.5","0.5","0.5","0.5","0.5","0.5","0.5","0.5","0.5","0.5","0.5","0.5","0.5","0.5","0.5","0.5","0.5","0.5","0.5","0.5","0.5","0.5","0.5","0.5","0.5","0.5","0.5","0.5","0.5","0.5","0.5","0.5",".",".","1","1","1","1","1","1","1","1","1","1","1","1","1","1","1",".",".","0.5","0.5","0.5","0.5","0.5","0.5","0.5","0.5","0.5","0.5","0.5","0.5","0.5","0.5","0.5","0.5","0.5","0.5","0.5","0.5","0.5","0.5","0.5","0.5","0.5","0.5","0.5","","","","","","","","","","","","","",NA,NA,NA,NA,NA,2933,NA,0,0,2500,0,2500,"sol-ichart-v1-processed","./","V1","yes","OK","child",81,"kitty","none","known_sign",31,"include","> 26.5 Months","no_shift","1",0,0,NA,NA,0,NA,0,0,0.5,NA,NA,TRUE
"30009",39,"F","sol-vanilla-1",11,"","car3R.pct","","book3L.pct","r","book3L.pct","Vanilla","D",2,600,2231,8000,"0.5","0.5","0.5","0.5","0.5","0.5","0.5","0.5","0.5","0.5","0.5","0.5","0.5","0.5","0.5","0.5","0.5","0.5",".",".","1","1","1","1","1","1","1","1","1","1","1","1","1","1","1","1","1","1","1","1","1","1","1","1","1","1","1","1","1","1","1","1","1","1","1","1","1","1","1","1","1","1","1","1","1","1","1","1","1","1","1","1","1","1","1","1","1","1","1","1","1","1","1","1","1","1","1","1","1","1","1","1","1","1","1","1","1","1","1","1","1","1","1","1","1","1","1","1","1","1","1","1","1","1","1","1","","","","","","","","","","","","","","","","","","","","","","","","","","","","","","","",NA,NA,NA,NA,NA,600,NA,0,0,2500,0,2500,"sol-ichart-v1-processed","./","V1","yes","OK","child",81,"book","none","known_sign",31,"include","> 26.5 Months","C_T","1",2,2,600,2,56,600,1,56,0.878378378378378,TRUE,TRUE,TRUE
"30009",39,"F","sol-vanilla-1",12,"","birdy3R.pct","","kitty3L.pct","r","kitty3L.pct","Vanilla","D",1,667,2297,8000,"0.5","0.5","0.5","0.5","0.5","0.5","0.5","0.5","0.5","0.5","0.5","0.5","0.5","0.5","0.5","0.5","0.5","0.5","0.5","0.5",".","1","1","1","1","1","1","1","1","1","1","1","1","1","1","1","1","1","1","1",".",".",".",".",".","0.5","0.5","0.5","0.5","0.5","0.5","0.5","0.5","0.5","0.5","0.5",".",".","1","1","1","1","1","1","1","1","1","1","1","1","1","1","1","1","1","1","1","1",".","0.5","0.5","0.5","0.5","0.5","0.5","0.5","0.5","0.5","0.5","0.5","0.5","0.5","0.5","0.5","0.5","0.5","0.5","0.5","0.5","0.5","0.5","0.5","0.5","0.5","0.5","0.5","0.5","0.5","0.5","0.5","0.5","0.5","0.5","0.5","0.5","0.5","0.5","0.5","0.5","0.5","0.5","0.5","0.5","0.5","0.5","0.5","0.5","0.5","0.5","0.5","0.5","0.5","0.5","0.5","0.5","","","","","","","","","","","","",NA,NA,NA,NA,NA,667,NA,0,0,2500,0,2500,"sol-ichart-v1-processed","./","V1","yes","OK","child",81,"kitty","none","known_sign",31,"include","> 26.5 Months","C_T","1",7,8,1700,1,19,667,2,19,0.772058823529412,TRUE,TRUE,TRUE
"30009",39,"F","sol-vanilla-1",13,"","teddy2.pct","","doll3L.pct","l","teddy2.pct","Vanilla","D",2,1700,1957,8000,"0.5","0.5","0.5","0.5","0.5","0.5","0.5","0.5","0.5","0.5","0.5","0.5","0.5","0.5","0.5","0.5","0.5","0.5","0.5","0.5","0.5","0.5","0.5","0.5","0.5","0.5","0.5","0.5","0.5","0.5","0.5","0.5","0.5","0.5","0.5","0.5","0.5","0.5","0.5","0.5","0.5","0.5","0.5","0.5","0.5","0.5","0.5","0.5","0.5","0.5","0.5",".",".","1","1","1","1","1","1","1","1","1","1","1","1","1","1","1","1","1","1","1","1","1","1","1","1","1","1","1","1","1","1","1","1","1","1","1","1","1","1","1","1","1","1","1","1","1","","","","","","","","","","","","","","","","","","","","","","","","","","","","","","","","","","","","","","","","","","","","","","","","","",NA,NA,NA,NA,NA,1700,NA,0,0,2500,0,2500,"sol-ichart-v1-processed","./","V1","yes","OK","child",81,"teddy","none","known_sign",31,"include","> 26.5 Months","C_T","1",2,2,1700,2,23,1700,1,23,0.655405405405405,TRUE,TRUE,TRUE
"30009",39,"F","sol-vanilla-1",14,"","shoe3R.pct","","ball3L.pct","r","ball3L.pct","Vanilla","D",2,867,2198,8000,"0.5","0.5","0.5","0.5","0.5","0.5","0.5","0.5","0.5","0.5","0.5","0.5","0.5","0.5","0.5","0.5","0.5","0.5","0.5","0.5","0.5","0.5","0.5","0.5","0.5","0.5",".",".","1","1","1","1","1","1","1","1","1","1",".",".","0.5","0.5","0.5","0.5","0.5","0.5","0.5","0.5","0.5","0.5","0.5","0.5","0.5","0.5","0.5","0.5","0.5","0.5","0.5","0.5","0.5","0.5","0.5","0.5","0.5","0.5","0.5","0.5","0.5","0.5","0.5","0.5","0.5","0.5","0.5","0.5","0.5","0.5","0.5","0.5","0.5","0.5","0.5","0.5","0.5","0.5","0.5","0.5","0.5","0.5","0.5","0.5","0.5","0.5","0.5","0.5","0.5","0.5","0.5","0.5","0.5","0.5","0.5","0.5","0.5","0.5","0.5","0.5","0.5","0.5","0.5","0.5","0.5","0.5","0.5","0.5","0.5","0.5","0.5","0.5","0.5","0.5","0.5","0.5","0.5","0.5","0.5","0.5","0.5","0.5","0.5","0.5","0.5","0.5","","","","","","","","","","","","","",NA,NA,NA,NA,NA,867,NA,0,0,2500,0,2500,"sol-ichart-v1-processed","./","V1","yes","OK","child",81,"ball","none","known_sign",31,"include","> 26.5 Months","C_T","1",2,4,867,2,10,867,2,10,0.569444444444444,TRUE,TRUE,TRUE
"30009",39,"F","sol-vanilla-1",15,"","birdy4R.pct","","kitty4L.pct","l","birdy4R.pct","Vanilla","D",2,567,1957,8000,"0.5","0.5","0.5","0.5","0.5","0.5","0.5","0.5","0.5","0.5","0.5","0.5","0.5","0.5","0.5","0.5","0.5",".",".","1","1","1","1","1","1","1","1","1","1","1","1","1","1","1","1","1","1","1","1",".",".",".","0.5","0.5","0.5","0.5","0.5","0.5","0.5","0.5","0.5","0.5","0.5",".",".","0","0","0","0","0","0","0","0","0","0","0","0","0","0","0","0","0","0","0","0","0","0","0","0","0","0",".",".",".",".","1","1","1","1","1","1","1","1","1","1","1","","","","","","","","","","","","","","","","","","","","","","","","","","","","","","","","","","","","","","","","","","","","","","","","","","","",NA,NA,NA,NA,NA,567,NA,0,0,2500,0,2500,"sol-ichart-v1-processed","./","V1","yes","OK","child",81,"birdy","none","known_sign",31,"include","> 26.5 Months","C_T","0",5,7,1667,2,21,567,2,20,0.492753623188406,TRUE,TRUE,TRUE
"30009",39,"F","sol-vanilla-1",16,"","teddy3.pct","","doll4L.pct","r","doll4L.pct","Vanilla","A",2,133,1924,8000,"1","1","1","1",".",".","0.5","0.5","0.5","0.5","0.5","0.5","0.5","0.5","0.5","0.5","0.5","0.5","0.5","0.5","0.5","0.5",".",".","0","0","0","0","0","0","0","0","0","0","0",".",".","0.5","0.5","0.5","0.5","0.5","0.5","0.5","0.5","0.5","0.5","0.5","0.5","0.5",".","1","1","1","1","1","1","1","1","1","1","1","1","1","1","1","1","1","1","1","1","1","1","1","1","1","1","1","1","1","1","1","1","1","1","1","1","1","1","1","1","1","1","1","1","1","1","1","1","1","1","1","1","1","1","1","1","1","1","1","1","1","1","1","1","1","1","","","","","","","","","","","","","","","","","","","","","","","","","","","","","","",NA,NA,NA,NA,NA,733,NA,0,0,2500,0,2500,"sol-ichart-v1-processed","./","V1","yes","OK","child",81,"doll","none","known_sign",31,"include","> 26.5 Months","off_signer","1",4,7,667,4,25,1167,2,11,0.630434782608696,TRUE,FALSE,TRUE
"30009",39,"F","sol-vanilla-1",17,"","car4R.pct","","book4L.pct","l","car4R.pct","Vanilla","D",1,567,1891,8000,"0.5","0.5","0.5","0.5","0.5","0.5","0.5","0.5","0.5","0.5","0.5","0.5","0.5","0.5","0.5","0.5","0.5",".","1","1","1","1","1","1","1","1","1","1","1","1","1","1","1","1","1","1","1","1","1","1",".",".",".",".",".",".",".",".",".",".",".",".",".",".",".",".",".",".",".",".",".",".",".",".",".",".",".",".",".",".",".",".",".",".",".",".",".",".",".",".",".",".",".",".",".",".",".",".",".",".",".",".",".",".",".",".",".",".",".",".",".",".",".",".",".",".","","","","","","","","","","","","","","","","","","","","","","","","","","","","","","","","","","","","","","","","","",NA,NA,NA,NA,NA,567,NA,0,0,2500,0,2500,"sol-ichart-v1-processed","./","V1","yes","OK","child",81,"car","none","known_sign",31,"include","> 26.5 Months","C_T","1",36,37,1333,1,22,567,2,22,0.782051282051282,TRUE,TRUE,FALSE
"30009",39,"F","sol-vanilla-1",18,"","shoe4R.pct","","ball4L.pct","l","shoe4R.pct","Vanilla","D",2,533,3033,8000,"0.5","0.5","0.5","0.5","0.5","0.5","0.5","0.5","0.5","0.5","0.5","0.5","0.5","0.5","0.5","0.5",".",".","1","1","1","1","1","1","1","1","1","1","1","1","1","1",".",".",".","0","0","0","0","0",".",".","1","1","1","1","1","1","1","1","1",".","0","0","0","0","0","0","0","0","0",".",".","1","1","1","1","1","1","1","1","1","1","1","1","1","1","1","1","1","1","1","1","1","1","1","1","1","1","1","1","1","1","1","1","1","1","1","1","1","1","1","1","1","1","1","1","1","1","1","1","1","1","1","1","1","1","1","1","1","1","1","1","1","1","1","1","1","1","1","1","1","1","1",".",".","0.5","0.5","0.5","0.5","0.5","0.5","0.5","0.5","0.5","","",NA,NA,NA,NA,NA,533,NA,0,0,2500,0,2500,"sol-ichart-v1-processed","./","V1","yes","OK","child",81,"shoe","none","known_sign",31,"include","> 26.5 Months","C_T","1",3,10,1067,2,14,533,5,14,0.666666666666667,TRUE,TRUE,TRUE
"30009",39,"F","sol-vanilla-1",20,"","kitty2R.pct","","birdy2L.pct","r","birdy2L.pct","Vanilla","D",2,400,1957,8000,"0.5","0.5","0.5","0.5","0.5","0.5","0.5","0.5","0.5","0.5","0.5","0.5",".",".","0","0","0","0","0","0","0","0","0","0","0",".",".","1","1","1","1","1","1","1","1","1","1","1","1","1","1",".",".","0","0","0","0","0","0","0","0","0","0","0","0","0","0","0","0","0","0","0","0","0","0","0","0","0","0","0","0","0","0","0","0","0","0","0","0","0","0","0","0","0","0","0","0","0","0","0","0","0","0","0","0","","","","","","","","","","","","","","","","","","","","","","","","","","","","","","","","","","","","","","","","","","","","","","","","","","","","",NA,NA,NA,NA,NA,400,NA,0,0,2500,0,2500,"sol-ichart-v1-processed","./","V1","yes","OK","child",81,"birdy","none","known_sign",31,"include","> 26.5 Months","C_D","0",2,6,400,2,33,833,3,11,0.285714285714286,TRUE,FALSE,TRUE
"30009",39,"F","sol-vanilla-1",21,"","book2R.pct","","car2L.pct","l","book2R.pct","Vanilla","D",1,1467,2231,8000,"0.5","0.5","0.5","0.5","0.5","0.5","0.5","0.5","0.5","0.5","0.5","0.5","0.5","0.5","0.5","0.5","0.5","0.5","0.5","0.5","0.5","0.5","0.5","0.5","0.5","0.5","0.5","0.5","0.5","0.5","0.5","0.5","0.5","0.5","0.5","0.5","0.5","0.5","0.5","0.5","0.5","0.5","0.5","0.5",".","1","1","1","1","1","1","1","1","1","1","1","1","1","1","1","1","1","1","1","1","1","1","1","1","1","1","1","1","1","1","1","1","1","1","1","1","1","1","1","1","1","1","1","1","1","1","1","1","1","1","1","1","1","1","1","1",".",".",".","0.5","0.5","0.5","0.5","0.5","0.5","0.5","0.5","0.5","0.5","0.5","0.5","","","","","","","","","","","","","","","","","","","","","","","","","","","","","","","",NA,NA,NA,NA,NA,1467,NA,0,0,2500,0,2500,"sol-ichart-v1-processed","./","V1","yes","OK","child",81,"book","none","known_sign",31,"include","> 26.5 Months","C_T","1",1,1,1467,1,31,1467,1,31,0.706666666666667,TRUE,TRUE,TRUE
"30009",39,"F","sol-vanilla-1",22,"","ball2R.pct","","shoe2L.pct","l","ball2R.pct","Vanilla","D",2,700,2198,8000,"0.5","0.5","0.5","0.5","0.5","0.5","0.5","0.5","0.5","0.5","0.5","0.5","0.5","0.5","0.5","0.5","0.5","0.5","0.5","0.5","0.5",".",".","1","1","1","1","1","1","1","1","1","1","1","1","1","1","1","1",".","0.5","0.5","0.5","0.5","0.5","0.5","0.5",".",".","0","0","0","0","0","0","0","0","0","0","0","0","0","0","0","0","0","0","0","0","0","0","0","0","0","0","0","0","0","0","0","0","0","0","0","0","0","0","0","0","0","0","0","0","0","0","0","0","0","0","0","0","0","0","0","0","0","0","0","0","0","0",".",".",".",".",".","1","1","1","1","1","1","1","1","1","1","1","1","1","1","1","1","1","1","1","","","","","","","","","","","","",NA,NA,NA,NA,NA,700,NA,0,0,2500,0,2500,"sol-ichart-v1-processed","./","V1","yes","OK","child",81,"ball","none","known_sign",31,"include","> 26.5 Months","C_T","0",3,5,1533,2,27,700,2,16,0.422535211267606,TRUE,TRUE,TRUE
"30009",39,"F","sol-vanilla-1",23,"","doll2R.pct","","teddy1R.pct","r","teddy1R.pct","Vanilla","D",1,667,2099,8000,"0.5","0.5","0.5","0.5","0.5","0.5","0.5","0.5","0.5","0.5","0.5","0.5","0.5","0.5","0.5","0.5","0.5","0.5","0.5","0.5",".","1","1","1","1","1","1","1","1","1","1","1","1","1","1","1","1","1","1","1","1","1","1","1","1","1","1","1","1","1","1","1","1","1","1","1","1","1","1","1","1","1","1","1","1","1","1","1","1","1","1","1","1","1","1","1","1","1","1","1","1","1","1","1","1","1","1","1","1","1","1","1","1","1","1","1","1","1","1","1","1","1","1","1","1","1","1","1","1","1","1","1","1","1","1","1","1","1",".",".","0","0","","","","","","","","","","","","","","","","","","","","","","","","","",NA,NA,NA,NA,NA,667,NA,0,0,2500,0,2500,"sol-ichart-v1-processed","./","V1","yes","OK","child",81,"teddy","none","known_sign",31,"include","> 26.5 Months","C_T","1",1,1,667,1,55,667,1,55,0.866666666666667,TRUE,TRUE,TRUE
"30009",39,"F","sol-vanilla-1",24,"","book3R.pct","","car3L.pct","r","car3L.pct","Vanilla","D",2,600,1891,8000,"0.5","0.5","0.5","0.5","0.5","0.5","0.5","0.5","0.5","0.5","0.5","0.5","0.5","0.5","0.5","0.5","0.5","0.5",".",".","0","0","0",".",".","1","1","1","1","1","1","1","1","1","1","1","1","1","1","1","1","1","1","1","1","1","1","1","1","1","1","1","1","1","1","1","1","1","1","1","1","1","1","1","1","1","1","1","1","1","1","1","1","1","1","1","1","1","1","1","1","1","1","1","1","1","1","1","1","1","1","1","1","1","1","1","1","1","1","1","1","1","1","1","1","1","","","","","","","","","","","","","","","","","","","","","","","","","","","","","","","","","","","","","","","","","",NA,NA,NA,NA,NA,600,NA,0,0,2500,0,2500,"sol-ichart-v1-processed","./","V1","yes","OK","child",81,"car","none","known_sign",31,"include","> 26.5 Months","C_D","1",2,4,600,2,51,767,2,3,0.833333333333333,TRUE,TRUE,TRUE
"30009",39,"F","sol-vanilla-1",25,"","kitty3R.pct","","birdy3L.pct","l","kitty3R.pct","Vanilla","D",2,767,2297,8000,"0.5","0.5","0.5","0.5","0.5","0.5","0.5","0.5","0.5","0.5","0.5","0.5","0.5","0.5","0.5","0.5","0.5","0.5","0.5","0.5","0.5","0.5","0.5",".",".","0","0","0","0","0","0","0","0","0","0","0","0","0","0","0","0","0","0","0","0","0","0","0","0","0","0","0","0","0","0","0","0","0","0","0","0","0","0","0","0",".",".",".",".",".","0.5","0.5","0.5",".",".","1","1","1","1","1","1","1","1","1","1","1","1","1","1","1","1","1","1","1",".",".",".",".",".",".","0.5","0.5","0.5",".","0","0","0","0","0","0","0","0","0",".",".",".",".",".",".",".",".",".",".",".",".",".",".",".",".",".",".",".",".",".",".","","","","","","","","","","","","",NA,NA,NA,NA,NA,767,NA,0,0,2500,0,2500,"sol-ichart-v1-processed","./","V1","yes","OK","child",81,"kitty","none","known_sign",31,"include","> 26.5 Months","C_D","0",7,9,2267,2,40,2167,2,40,0.208955223880597,TRUE,TRUE,TRUE
"30009",39,"F","sol-vanilla-1",26,"","ball3R.pct","","shoe3L.pct","r","shoe3L.pct","Vanilla","D",3,700,3033,8000,"0.5","0.5","0.5","0.5","0.5","0.5","0.5","0.5","0.5","0.5","0.5","0.5","0.5","0.5","0.5","0.5","0.5","0.5","0.5","0.5","0.5",".",".",".","0","0","0","0",".",".","1","1","1","1","1","1","1","1","1","1","1","1","1","1","1","1","1","1","1","1","1","1","1","1","1","1","1","1","1","1","1","1","1","1","1","1",".",".","0","0","0","0","0","0","0","0","0","0","0","0","0","0","0","0","0",".",".","0.5","0.5","0.5","0.5","0.5","0.5","0.5","0.5","0.5","0.5","0.5","0.5","0.5","0.5","0.5","0.5","0.5","0.5","0.5","0.5","0.5","0.5","0.5","0.5","0.5","0.5","0.5","0.5","0.5","0.5","0.5","0.5","0.5","0.5","0.5","0.5","0.5","0.5","0.5","0.5","0.5","0.5","0.5","0.5","0.5","0.5","0.5","0.5","0.5","0.5","0.5","0.5","0.5","0.5","0.5","0.5","0.5","0.5","0.5","",NA,NA,NA,NA,NA,700,NA,0,0,2500,0,2500,"sol-ichart-v1-processed","./","V1","yes","OK","child",81,"shoe","none","known_sign",31,"include","> 26.5 Months","C_D","1",3,7,700,3,36,933,3,4,0.673913043478261,TRUE,TRUE,TRUE
"30009",39,"F","sol-vanilla-1",27,"","doll3R.pct","","teddy2.pct","l","doll3R.pct","Vanilla","D",1,1400,2066,8000,"0.5","0.5","0.5","0.5","0.5","0.5","0.5","0.5","0.5","0.5","0.5","0.5","0.5","0.5","0.5","0.5","0.5","0.5","0.5","0.5","0.5","0.5","0.5","0.5","0.5","0.5","0.5","0.5","0.5","0.5","0.5","0.5","0.5","0.5","0.5","0.5","0.5","0.5","0.5","0.5","0.5","0.5",".","0","0","0","0","0","0",".",".",".","1","1","1","1","1","1","1","1","1","1","1","1","1","1","1","1","1","1","1","1","1","1","1","1","1","1","1","1","1","1",".",".",".","0","0","0","0","0","0","0","0","0","0","0","0","0","0","0","0","0","0","0","0","0","0","0","0",".","1","1","1","","","","","","","","","","","","","","","","","","","","","","","","","","","","","","","","","","",NA,NA,NA,NA,NA,1400,NA,0,0,2500,0,2500,"sol-ichart-v1-processed","./","V1","yes","OK","child",81,"doll","none","known_sign",31,"include","> 26.5 Months","C_D","1",3,4,1633,1,24,1633,2,6,0.625,TRUE,TRUE,TRUE
"30009",39,"F","sol-vanilla-1",29,"","birdy1R.pct","","kitty1L.pct","r","kitty1L.pct","Vanilla","A",2,NA,2297,8000,"0","0","0","0","0","0","0","0","0","0","0","0","0","0","0","0","0","0","0","0","0",".",".",".","0.5","0.5","0.5","0.5","0.5","0.5","0.5","0.5","0.5","0.5","0.5","0.5","0.5","0.5","0.5","0.5","0.5","0.5","0.5","0.5","0.5","0.5","0.5","0.5","0.5","0.5","0.5","0.5","0.5","0.5","0.5","0.5","0.5","0.5","0.5","0.5","0.5","0.5","0.5","0.5","0.5","0.5","0.5","0.5","0.5","0.5","0.5","0.5","0.5","0.5","0.5","0.5","0.5","0.5","0.5",".",".","1","1","1","1","1","1","1","1","1","1","1","1","1","1","1","1","1","1","1","1","1","1","1","1","1","1","1","1","1","1","1","1","1","1","1","1","1","1","1","1","1","1","1","1","1","1","1","1","1","1","1","1","1","1","1","","","","","","","","","","","",NA,NA,NA,NA,NA,2633,NA,0,0,2500,0,2500,"sol-ichart-v1-processed","./","V1","yes","OK","child",81,"kitty","none","known_sign",31,"include","> 26.5 Months","off_signer","0",3,3,700,NA,21,NA,1,0,0.356164383561644,NA,NA,TRUE
"30009",39,"F","sol-vanilla-1",30,"","shoe1R.pct","","ball1L.pct","r","ball1L.pct","Vanilla","A",NA,0,1891,8000,".",".",".",".",".",".",".","0.5","0.5","0.5","0.5","0.5","0.5","0.5","0.5","0.5","0.5","0.5","0.5","0.5","0.5","0.5","0.5","0.5","0.5","0.5","0.5","0.5","0.5","0.5","0.5","0.5","0.5","0.5","0.5","0.5","0.5","0.5","0.5","0.5","0.5","0.5",".",".","0","0","0","0","0","0","0","0","0","0","0","0","0","0","0","0","0","0","0","0","0","0","0","0","0","0","0","0","0","0","0","0","0","0","0","0","0","0","0","0","0","0","0","0","0","0","0","0","0","0","0","0","0","","","","","","","","","","","","","","","","","","","","","","","","","","","","","","","","","","","","","","","","","","","","","","","","","","",NA,NA,NA,NA,NA,NA,NA,0,0,2500,0,2500,"sol-ichart-v1-processed","./","V1","yes","OK","child",81,"ball","none","known_sign",31,"include","> 26.5 Months","off_signer","0",9,9,1167,9,32,NA,1,32,0.261194029850746,TRUE,FALSE,TRUE
"30009",39,"F","sol-vanilla-1",31,"","teddy3.pct","","doll1L.pct","l","teddy3.pct","Vanilla","A",NA,0,2099,8000,".",".",".",".",".",".",".",".",".",".",".",".",".",".",".",".",".",".",".",".",".",".",".",".",".",".",".",".",".",".",".",".",".",".",".",".",".",".",".",".",".",".",".",".",".",".",".",".","-",".","1","1","1","1","1","1","1","1","1","1","1","1","1","1","1","1","1","1","1","1","1","1","1","1","1","1","1","1","1","1","1","1","1","1","1","1","1","1","1","1","1","1","1","1","1","1","1","1","1","1","1","1","1","1","1","1","1","1","1","1","1","1","1","1","1","1","1","1","1","1","1","1","1","1","","","","","","","","","","","","","","","","","","","","","","","",NA,NA,NA,NA,NA,NA,NA,0,0,2500,0,2500,"sol-ichart-v1-processed","./","V1","yes","OK","child",81,"teddy","none","known_sign",31,"include","> 26.5 Months","off_signer","1",50,50,0,50,26,0,1,26,1,FALSE,FALSE,FALSE
"30009",39,"F","sol-vanilla-1",32,"","birdy4R.pct","","kitty4L.pct","l","birdy4R.pct","Vanilla","A",2,0,1957,8000,".",".",".",".",".",".",".",".",".",".",".","-",".","0.5","0.5","0.5","0.5","0.5","0.5","0.5","0.5","0.5","0.5","0.5","0.5","0.5","0.5","0.5","0.5","0.5","0.5","0.5","0.5","0.5",".",".","1","1","1","1","1","1","1","1","1","1","1","1","1","1",".",".","0","0","0","0","0","0","0","0","0","0","0","0","0","0","0","0","0","0","0","0","0","0","0","0","0","0","0","0","0","0","0","0","0","0","0","0","0","0","0","0","0","0","","","","","","","","","","","","","","","","","","","","","","","","","","","","","","","","","","","","","","","","","","","","","","","","","","","","","",NA,NA,NA,NA,NA,1667,NA,0,0,2500,0,2500,"sol-ichart-v1-processed","./","V1","yes","OK","child",81,"birdy","none","known_sign",31,"include","> 26.5 Months","off_signer","0",15,17,700,15,24,0,2,14,0.415254237288136,TRUE,FALSE,TRUE
"30009",39,"F","sol-vanilla-1",33,"","car1R.pct","","book1L.pct","r","book1L.pct","Vanilla","D",NA,NA,2231,8000,"0.5","0.5","0.5","0.5","0.5","0.5","0.5","0.5","0.5","0.5","0.5","0.5","0.5","0.5","0.5","0.5","0.5","0.5","0.5","0.5","0.5","0.5","0.5","0.5","0.5","0.5","0.5","0.5","0.5","0.5","0.5","0.5","0.5","0.5","0.5","0.5","0.5","0.5","0.5","0.5","0.5","0.5","0.5","0.5","0.5","0.5","0.5","0.5","0.5","0.5","0.5","0.5","0.5","0.5","0.5","0.5","0.5","0.5","0.5","0.5","0.5","0.5","0.5","0.5","0.5","0.5","0.5","0.5","0.5","0.5","0.5","0.5","0.5","0.5","0.5","0.5","0.5","0.5","0.5","0.5","0.5","0.5","0.5","0.5","0.5","0.5","0.5","0.5","0.5","0.5","0.5","0.5","0.5","0.5","0.5","0.5","0.5","0.5","0.5","0.5","0.5","0.5","0.5","0.5","0.5","0.5","0.5","0.5","0.5","0.5","0.5","0.5","0.5","0.5","0.5","0.5","0.5","","","","","","","","","","","","","","","","","","","","","","","","","","","","","","",NA,NA,NA,NA,NA,NA,NA,0,0,2500,0,2500,"sol-ichart-v1-processed","./","V1","yes","OK","child",81,"book","none","known_sign",31,"include","> 26.5 Months","no_shift","0",0,0,NA,NA,0,NA,0,0,0.5,NA,NA,TRUE
"30009",39,"F","sol-vanilla-1",34,"","shoe4R.pct","","ball4L.pct","l","shoe4R.pct","Vanilla","A",7,0,3033,8000,".",".",".",".",".",".",".",".",".",".",".",".",".",".",".",".",".",".",".",".",".",".",".",".",".",".",".",".",".",".",".",".",".",".",".",".",".",".",".",".",".",".",".",".",".",".",".",".",".",".",".",".",".",".",".",".",".",".",".",".",".",".",".",".",".",".",".",".",".",".",".","1","1","1","1","1","1","1","1","1","1","1","1","1","1","1",".",".",".",".",".",".",".","0","0","0","0",".",".",".",".",".",".","1","1","1","1","1","1","1","1","1",".","0","0","0","0","0","0","0","0","0","0","0","0","0","0","0","0","0","0","0","0","0","0","0","0","0","0","0","0","0","0","0","0","0","",NA,NA,NA,NA,NA,2867,NA,0,0,2500,0,2500,"sol-ichart-v1-processed","./","V1","yes","OK","child",81,"shoe","none","known_sign",31,"include","> 26.5 Months","off_signer","1",71,71,0,71,5,0,1,5,1,FALSE,FALSE,FALSE
"30009",39,"F","sol-vanilla-1",35,"","teddy1R.pct","","doll4L.pct","r","doll4L.pct","Vanilla","D",2,1733,2066,8000,"0.5","0.5","0.5","0.5","0.5","0.5","0.5","0.5","0.5","0.5","0.5","0.5","0.5","0.5","0.5","0.5","0.5","0.5","0.5","0.5","0.5","0.5","0.5","0.5","0.5","0.5","0.5","0.5","0.5","0.5","0.5","0.5","0.5","0.5","0.5","0.5","0.5","0.5","0.5","0.5","0.5","0.5","0.5","0.5","0.5","0.5","0.5","0.5","0.5","0.5","0.5","0.5",".",".","1","1","1","1","1","1","1","1","1","1","1","1","1","1","1","1","1","1","1","1","1","1","1","1","1","1","1","1","1","1","1","1","1","1","1","1","1","1","1","1","1","1","1",".",".","0","0","0","0","0","0","0","0","0","0","0","","","","","","","","","","","","","","","","","","","","","","","","","","","","","","","","","","","","","",NA,NA,NA,NA,NA,1733,NA,0,0,2500,0,2500,"sol-ichart-v1-processed","./","V1","yes","OK","child",81,"doll","none","known_sign",31,"include","> 26.5 Months","C_T","1",2,2,1733,2,22,1733,1,22,0.648648648648649,TRUE,TRUE,TRUE
"30010",44,"F","sol-vanilla-2",2,"","teddy1R.pct","","doll1L.pct","r","doll1L.pct","Vanilla","D",1,1100,1924,8000,"0.5","0.5","0.5","0.5","0.5","0.5","0.5","0.5","0.5","0.5","0.5","0.5","0.5","0.5","0.5","0.5","0.5","0.5","0.5","0.5","0.5","0.5","0.5","0.5","0.5","0.5","0.5","0.5","0.5","0.5","0.5","0.5","0.5",".","1","1","1","1","1","1","1","1","1","1","1","1","1","1","1","1","1","1","1","1","1","1","1","1","1","1","1","1","1","1","1","1","1","1","1","1","1","1","1","1",".",".",".",".","0.5","0.5","0.5","0.5","0.5","0.5","0.5","0.5","0.5","0.5","0.5","0.5","0.5","0.5","0.5","0.5","0.5","0.5","0.5","0.5","0.5","0.5",".","1","1","1","1","1","1","1","1","1","1","1","1","1","1","1","1","1","1","1","","","","","","","","","","","","","","","","","","","","","","","","","","","",NA,NA,NA,NA,NA,1100,NA,0,0,2500,0,2500,"sol-ichart-v1-processed","./","V1","yes","OK","child",77,"doll","none","known_sign",32,"include","> 26.5 Months","C_T","1",2,3,2467,1,40,1100,2,40,0.773972602739726,TRUE,TRUE,TRUE
"30010",44,"F","sol-vanilla-2",3,"","car1R.pct","","book1L.pct","l","car1R.pct","Vanilla","D",1,867,1891,8000,"0.5","0.5","0.5","0.5","0.5","0.5","0.5","0.5","0.5","0.5","0.5","0.5","0.5","0.5","0.5","0.5","0.5","0.5","0.5","0.5","0.5","0.5","0.5","0.5","0.5","0.5",".","1","1","1","1","1","1","1","1","1","1","1","1","1","1","1","1","1","1","1","1","1","1","1","1","1","1","1","1","1","1","1","1","1","1","1","1","1","1","1","1","1","1","1","1","1","1","1","1","1","1","1","1","1","1","1","1","1",".","0.5","0.5","0.5","0.5","0.5","0.5","0.5","0.5","0.5","0.5","0.5","0.5","0.5","0.5","0.5","0.5","0.5","0.5","0.5","0.5","0.5","0.5","0.5","","","","","","","","","","","","","","","","","","","","","","","","","","","","","","","","","","","","","","","",NA,NA,NA,NA,NA,867,NA,0,0,2500,0,2500,"sol-ichart-v1-processed","./","V1","yes","OK","child",77,"car","none","known_sign",32,"include","> 26.5 Months","C_T","1",1,1,867,1,49,867,1,49,0.826666666666667,TRUE,TRUE,TRUE
"30010",44,"F","sol-vanilla-2",4,"","shoe1R.pct","","ball1L.pct","r","ball1L.pct","Vanilla","D",2,1267,2198,8000,"0.5","0.5","0.5","0.5","0.5","0.5","0.5","0.5","0.5","0.5","0.5","0.5","0.5","0.5","0.5","0.5","0.5","0.5","0.5","0.5","0.5","0.5","0.5","0.5","0.5","0.5","0.5","0.5","0.5","0.5","0.5","0.5","0.5","0.5","0.5","0.5","0.5","0.5",".",".","1","1","1","1","1","1","1","1","1","1","1","1","1","1","1","1","1","1","1","1","1","1","1","1","1","1","1","1","1","1","1","1","1","1","1","1","1","1","1","1","1","1","1","1","1","1","1","1","1",".","0.5","0.5","0.5","0.5","0.5","0.5","0.5","0.5","0.5","0.5","0.5","0.5","0.5","0.5","0.5","0.5","0.5","0.5","0.5","0.5","0.5","0.5","0.5","0.5","0.5","0.5","0.5","0.5","0.5","0.5","0.5","0.5","0.5","0.5","0.5","0.5","0.5","0.5","0.5","0.5","0.5","0.5","0.5","0.5","0.5","0.5","","","","","","","","","","","",NA,NA,NA,NA,NA,1267,NA,0,0,2500,0,2500,"sol-ichart-v1-processed","./","V1","yes","OK","child",77,"ball","none","known_sign",32,"include","> 26.5 Months","C_T","1",2,2,1267,2,36,1267,1,36,0.743243243243243,TRUE,TRUE,TRUE
"30010",44,"F","sol-vanilla-2",5,"","teddy3.pct","","doll2L.pct","l","teddy3.pct","Vanilla","D",2,833,2099,8000,"0.5","0.5","0.5","0.5","0.5","0.5","0.5","0.5","0.5","0.5","0.5","0.5","0.5","0.5","0.5","0.5","0.5","0.5","0.5","0.5","0.5","0.5","0.5","0.5","0.5",".",".","1","1","1","1","1","1","1","1","1","1","1","1","1","1","1","1","1","1","1","1","1","1","1","1","1","1","1","1","1","1","1","1","1","1","1","1","1","1","1","1","1","1","1","1","1","1","1","1","1","1","1","1","1","1",".",".","0.5","0.5","0.5","0.5","0.5","0.5","0.5","0.5","0.5","0.5","0.5","0.5","0.5","0.5","0.5","0.5","0.5","0.5","0.5","0.5","0.5","0.5","0.5","0.5","0.5","0.5","0.5","0.5","0.5","0.5","0.5","0.5","0.5","0.5","0.5","0.5","0.5","0.5","0.5","0.5","0.5","","","","","","","","","","","","","","","","","","","","","","","",NA,NA,NA,NA,NA,833,NA,0,0,2500,0,2500,"sol-ichart-v1-processed","./","V1","yes","OK","child",77,"teddy","none","known_sign",32,"include","> 26.5 Months","C_T","1",2,2,833,2,49,833,1,49,0.831081081081081,TRUE,TRUE,TRUE
"30010",44,"F","sol-vanilla-2",6,"","shoe2R.pct","","ball2L.pct","l","shoe2R.pct","Vanilla","D",1,867,1891,8000,"0.5","0.5","0.5","0.5","0.5","0.5","0.5","0.5","0.5","0.5","0.5","0.5","0.5","0.5","0.5","0.5","0.5","0.5","0.5","0.5","0.5","0.5","0.5","0.5","0.5","0.5",".","1","1","1","1","1","1","1","1","1","1","1","1","1","1","1","1","1","1","1","1","1","1","1","1","1","1","1","1","1","1","1","1","1","1","1","1","1",".",".","0.5","0.5","0.5","0.5","0.5","0.5","0.5","0.5","0.5","0.5","0.5","0.5","0.5","0.5","0.5","0.5",".",".","1","1","1","1","1","1","1","1","1","1","1","1","1","1","1","1","1","1","1","1","1","1","1","1","1","1","1","1","1","1","1","1","1","1","1","1","1","","","","","","","","","","","","","","","","","","","","","","","","","","",NA,NA,NA,NA,NA,867,NA,0,0,2500,0,2500,"sol-ichart-v1-processed","./","V1","yes","OK","child",77,"shoe","none","known_sign",32,"include","> 26.5 Months","C_T","1",2,3,2133,1,37,867,2,37,0.753424657534247,TRUE,TRUE,TRUE
"30010",44,"F","sol-vanilla-2",7,"","birdy1R.pct","","kitty1L.pct","l","birdy1R.pct","Vanilla","D",2,900,2000,8000,"0.5","0.5","0.5","0.5","0.5","0.5","0.5","0.5","0.5","0.5","0.5","0.5","0.5","0.5","0.5","0.5","0.5","0.5","0.5","0.5","0.5","0.5","0.5","0.5","0.5","0.5","0.5",".",".","1","1","1","1","1","1","1","1","1","1","1","1","1","1","1","1","1","1","1","1","1","1","1","1","1","1","1","1","1","1","1","1","1","1","1","1","1","1","1","1","1","1","1","1","1","1","1","1","1","1","1","1","1","1","1","1","1","1","1","1","1","1",".",".","0.5","0.5","0.5","0.5","0.5","","","","","","","","","","","","","","","","","","","","","","","","","","","","","","","","","","","","","","","","","","","","","","","","","",NA,NA,NA,NA,NA,900,NA,0,0,2500,0,2500,"sol-ichart-v1-processed","./","V1","yes","OK","child",77,"birdy","none","known_sign",32,"include","> 26.5 Months","C_T","1",2,2,900,2,47,900,1,47,0.817567567567568,TRUE,TRUE,TRUE
"30010",44,"F","sol-vanilla-2",8,"","car2R.pct","","book2L.pct","r","book2L.pct","Vanilla","D",2,833,2231,8000,"0.5","0.5","0.5","0.5","0.5","0.5","0.5","0.5","0.5","0.5","0.5","0.5","0.5","0.5","0.5","0.5","0.5","0.5","0.5","0.5","0.5","0.5","0.5","0.5","0.5",".",".","0","0","0","0","0","0","0","0","0","0",".",".","1","1","1","1","1","1","1","1","1","1","1","1","1","1","1","1","1","1","1","1","1","1","1","1","1","1","1","1","1","1","1","1","1","1","1","1","1","1","1","1","1","1","1","1","1","1",".",".","0.5","0.5","0.5","0.5","0.5","0.5","0.5","0.5","0.5","0.5","0.5","0.5","0.5","0.5","0.5","0.5","0.5","0.5","0.5","0.5","0.5","0.5","0.5","0.5","0.5","0.5","","","","","","","","","","","","","","","","","","","","","","","","","","","","","","","","","","",NA,NA,NA,NA,NA,833,NA,0,0,2500,0,2500,"sol-ichart-v1-processed","./","V1","yes","OK","child",77,"book","none","known_sign",32,"include","> 26.5 Months","C_D","1",2,4,833,2,37,1233,2,10,0.6875,TRUE,TRUE,TRUE
"30010",44,"F","sol-vanilla-2",9,"","birdy2R.pct","","kitty2L.pct","r","kitty2L.pct","Vanilla","D",2,1400,3132,8000,"0.5","0.5","0.5","0.5","0.5","0.5","0.5","0.5","0.5","0.5","0.5","0.5","0.5","0.5","0.5","0.5","0.5","0.5","0.5","0.5","0.5","0.5","0.5","0.5","0.5","0.5","0.5","0.5","0.5","0.5","0.5","0.5","0.5","0.5","0.5","0.5","0.5","0.5","0.5","0.5","0.5","0.5",".",".","0","0","0","0","0","0","0","0",".",".","1","1","1","1","1","1","1","1","1","1","1","1","1","1","1","1","1","1","1","1","1","1","1","1","1","1","1","1","1","1","1","1","1","1","1","1","1","1","1","1","1","1","1","1","1","1","1","1","1","1","1","1",".",".","0.5","0.5","0.5","0.5","0.5","0.5","0.5","0.5","0.5","0.5","0.5","0.5","0.5","0.5","0.5","0.5","0.5","0.5","0.5","0.5","0.5","0.5","0.5","0.5","0.5","0.5","","","","","","","","","","","","","",NA,NA,NA,NA,NA,1400,NA,0,0,2500,0,2500,"sol-ichart-v1-processed","./","V1","yes","OK","child",77,"kitty","none","known_sign",32,"include","> 26.5 Months","C_D","1",2,4,1400,2,22,1733,2,8,0.597222222222222,TRUE,TRUE,TRUE
"30010",44,"F","sol-vanilla-2",11,"","book3R.pct","","car3L.pct","l","book3R.pct","Vanilla","D",2,1500,2231,8000,"0.5","0.5","0.5","0.5","0.5","0.5","0.5","0.5","0.5","0.5","0.5","0.5","0.5","0.5","0.5","0.5","0.5","0.5","0.5","0.5","0.5","0.5","0.5","0.5","0.5","0.5","0.5","0.5","0.5","0.5","0.5","0.5","0.5","0.5","0.5","0.5","0.5","0.5","0.5","0.5","0.5","0.5","0.5","0.5","0.5",".",".","1","1","1","1","1","1","1","1","1","1","1","1","1","1","1","1","1","1","1","1","1","1","1","1","1","1","1","1","1","1","1","1","1","1","1","1","1","1","1","1","1","1","1","1","1",".",".","0.5","0.5","0.5","0.5","0.5","0.5","0.5","0.5","0.5","0.5","0.5","0.5","0.5","0.5","0.5","0.5","0.5","0.5","0.5","0.5","0.5","","","","","","","","","","","","","","","","","","","","","","","","","","","","","","","","",NA,NA,NA,NA,NA,1500,NA,0,0,2500,0,2500,"sol-ichart-v1-processed","./","V1","yes","OK","child",77,"book","none","known_sign",32,"include","> 26.5 Months","C_T","1",2,2,1500,2,29,1500,1,29,0.695945945945946,TRUE,TRUE,TRUE
"30010",44,"F","sol-vanilla-2",12,"","kitty3R.pct","","birdy3L.pct","l","kitty3R.pct","Vanilla","D",2,1267,2297,8000,"0.5","0.5","0.5","0.5","0.5","0.5","0.5","0.5","0.5","0.5","0.5","0.5","0.5","0.5","0.5","0.5","0.5","0.5","0.5","0.5","0.5","0.5","0.5","0.5","0.5","0.5","0.5","0.5","0.5","0.5","0.5","0.5","0.5","0.5","0.5","0.5","0.5","0.5",".",".","1","1","1","1","1","1","1","1","1","1","1","1","1","1","1","1","1","1","1","1","1","1","1","1","1","1","1","1","1",".",".",".",".",".","0.5","0.5","0.5","0.5","0.5","0.5","0.5","0.5","0.5","0.5","0.5","0.5","0.5","0.5","0.5","0.5","0.5","0.5","0.5",".",".","1","1","1","1","1","1","1","1","1","1","1","1","1","1","1","1","1","1","1","1","1","1","1","1","1","1","1","1","1","1","1","1","1","1","1","1","1","1","1","1","","","","","","","","","","","","",NA,NA,NA,NA,NA,1267,NA,0,0,2500,0,2500,"sol-ichart-v1-processed","./","V1","yes","OK","child",77,"kitty","none","known_sign",32,"include","> 26.5 Months","C_T","1",5,7,2300,2,29,1267,2,29,0.710144927536232,TRUE,TRUE,TRUE
"30010",44,"F","sol-vanilla-2",13,"","doll3R.pct","","teddy2.pct","r","teddy2.pct","Vanilla","D",1,733,1957,8000,"0.5","0.5","0.5","0.5","0.5","0.5","0.5","0.5","0.5","0.5","0.5","0.5","0.5","0.5","0.5","0.5","0.5","0.5","0.5","0.5","0.5","0.5",".","1","1","1","1","1","1","1","1","1","1","1","1","1","1","1","1","1","1","1","1","1","1","1","1","1","1","1","1","1","1","1",".","0.5","0.5","0.5","0.5","0.5","0.5","0.5","0.5","0.5","0.5","0.5","0.5","0.5","0.5","0.5","0.5","0.5","0.5","0.5","0.5","0.5","0.5","0.5","0.5","0.5","0.5","0.5","0.5","0.5","0.5","0.5","0.5","0.5","0.5","0.5","0.5","0.5","0.5","0.5","0.5","0.5","0.5","0.5","0.5","","","","","","","","","","","","","","","","","","","","","","","","","","","","","","","","","","","","","","","","","","","","","","","","",NA,NA,NA,NA,NA,733,NA,0,0,2500,0,2500,"sol-ichart-v1-processed","./","V1","yes","OK","child",77,"teddy","none","known_sign",32,"include","> 26.5 Months","C_T","1",1,2,733,1,31,733,2,31,0.709459459459459,TRUE,TRUE,TRUE
"30010",44,"F","sol-vanilla-2",14,"","ball3R.pct","","shoe3L.pct","l","ball3R.pct","Vanilla","D",2,1367,2198,8000,"0.5","0.5","0.5","0.5","0.5","0.5","0.5","0.5","0.5","0.5","0.5","0.5","0.5","0.5","0.5","0.5","0.5","0.5","0.5","0.5","0.5","0.5","0.5","0.5","0.5","0.5","0.5","0.5","0.5","0.5","0.5","0.5","0.5","0.5","0.5","0.5","0.5","0.5","0.5","0.5","0.5",".",".","1","1","1","1","1","1","1","1","1","1","1","1","1","1","1","1","1","1","1","1","1","1","1","1","1","1","1","1","1","1","1","1","1",".",".",".","0.5","0.5","0.5","0.5","0.5","0.5","0.5","0.5","0.5","0.5","0.5","0.5","0.5","0.5","0.5","0.5","0.5","0.5","0.5",".","1","1","1","1","1","1","1","1","1","1",".",".","0","0","0","0","0","0","0","0","0","0","0","0","0","0","0","0","0","0","0","0","0","0","0","0","","","","","","","","","","","","",NA,NA,NA,NA,NA,1367,NA,0,0,2500,0,2500,"sol-ichart-v1-processed","./","V1","yes","OK","child",77,"ball","none","known_sign",32,"include","> 26.5 Months","C_T","1",2,2,1367,2,33,1367,1,33,0.722972972972973,TRUE,TRUE,TRUE
"30010",44,"F","sol-vanilla-2",15,"","kitty4R.pct","","birdy4L.pct","r","birdy4L.pct","Vanilla","D",2,833,1957,8000,"0.5","0.5","0.5","0.5","0.5","0.5","0.5","0.5","0.5","0.5","0.5","0.5","0.5","0.5","0.5","0.5","0.5","0.5","0.5","0.5","0.5","0.5","0.5","0.5","0.5",".",".","0","0","0","0","0","0","0","0","0","0","0","0",".",".","1","1","1","1","1","1","1","1","1","1","1","1","1","1","1","1","1","1","1","1","1","1","1","1","1","1","1","1","1","1","1","1","1","1","1","1","1","1","1","1","1","1","1","1","1","1","1","1","1","1","1","1","1","1","","","","","","","","","","","","","","","","","","","","","","","","","","","","","","","","","","","","","","","","","","","","","","","","","","","","",NA,NA,NA,NA,NA,833,NA,0,0,2500,0,2500,"sol-ichart-v1-processed","./","V1","yes","OK","child",77,"birdy","none","known_sign",32,"include","> 26.5 Months","C_D","1",2,4,833,2,35,1300,2,12,0.659722222222222,TRUE,TRUE,TRUE
"30010",44,"F","sol-vanilla-2",16,"","doll4R.pct","","teddy3.pct","l","doll4R.pct","Vanilla","D",4,1167,1924,8000,"0.5","0.5","0.5","0.5","0.5","0.5","0.5","0.5","0.5","0.5","0.5","0.5","0.5","0.5","0.5","0.5","0.5","0.5","0.5","0.5","0.5","0.5","0.5","0.5","0.5","0.5","0.5","0.5","0.5","0.5","0.5","0.5","0.5","0.5","0.5",".",".",".",".","1","1","1","1","1","1","1","1","1","1","1","1","1","1","1","1","1","1","1","1","1","1","1","1","1","1","1","1","1","1","1","1","1","1","1","1","1","1","1","1","1","1","1","1","1","1","1","1","1","1","1","1","1","1","1","1","1","1","1","1","1","1","1","1","1","1","1","1","1","1","1","1","1","1","1","1","1","1","1","","","","","","","","","","","","","","","","","","","","","","","","","","","","","",NA,NA,NA,NA,NA,1167,NA,0,0,2500,0,2500,"sol-ichart-v1-processed","./","V1","yes","OK","child",77,"doll","none","known_sign",32,"include","> 26.5 Months","C_T","1",4,4,1167,4,37,1167,1,37,0.756944444444444,TRUE,TRUE,TRUE
"30010",44,"F","sol-vanilla-2",17,"","book4R.pct","","car4L.pct","r","car4L.pct","Vanilla","D",2,1167,1891,8000,"0.5","0.5","0.5","0.5","0.5","0.5","0.5","0.5","0.5","0.5","0.5","0.5","0.5","0.5","0.5","0.5","0.5","0.5","0.5","0.5","0.5","0.5","0.5","0.5","0.5","0.5","0.5","0.5","0.5","0.5","0.5","0.5","0.5","0.5","0.5",".",".","1","1","1","1","1","1","1","1","1","1","1","1","1","1","1","1","1","1","1","1","1","1","1","1","1","1","1","1","1","1","1","1","1","1","1","1","1","1","1","1","1","1","1","1","1","1",".",".",".",".",".",".",".","0.5","0.5","0.5","0.5","0.5","0.5","0.5","0.5","0.5","0.5","0.5","0.5","0.5","0.5","0.5","0.5","","","","","","","","","","","","","","","","","","","","","","","","","","","","","","","","","","","","","","","","","",NA,NA,NA,NA,NA,1167,NA,0,0,2500,0,2500,"sol-ichart-v1-processed","./","V1","yes","OK","child",77,"car","none","known_sign",32,"include","> 26.5 Months","C_T","1",2,2,1167,2,39,1167,1,39,0.763513513513513,TRUE,TRUE,TRUE
"30010",44,"F","sol-vanilla-2",18,"","ball4R.pct","","shoe4L.pct","r","shoe4L.pct","Vanilla","D",2,2000,3033,8000,"0.5","0.5","0.5","0.5","0.5","0.5","0.5","0.5","0.5","0.5","0.5","0.5","0.5","0.5","0.5","0.5","0.5","0.5","0.5","0.5","0.5","0.5","0.5","0.5","0.5","0.5","0.5","0.5","0.5","0.5","0.5","0.5","0.5","0.5","0.5","0.5","0.5","0.5","0.5","0.5","0.5","0.5","0.5","0.5","0.5","0.5","0.5","0.5","0.5","0.5","0.5","0.5","0.5","0.5","0.5","0.5","0.5","0.5","0.5","0.5",".",".","1","1","1","1","1","1","1","1","1","1","1","1","1","1","1","1","1","1","1","1","1","1","1","1","1","1","1","1","1","1","1","1","1","1","1","1","1","1","1","1","1","1","1",".",".",".",".",".",".",".",".",".",".",".",".",".",".",".",".",".",".",".",".",".",".",".",".",".",".",".",".",".",".",".",".",".",".",".",".",".",".",".",".","","",NA,NA,NA,NA,NA,2000,NA,0,0,2500,0,2500,"sol-ichart-v1-processed","./","V1","yes","OK","child",77,"shoe","none","known_sign",32,"include","> 26.5 Months","C_T","1",2,2,2000,2,14,2000,1,14,0.594594594594595,TRUE,TRUE,TRUE
"30010",44,"F","sol-vanilla-2",20,"","birdy2R.pct","","kitty2L.pct","l","birdy2R.pct","Vanilla","D",2,667,1957,8000,"0.5","0.5","0.5","0.5","0.5","0.5","0.5","0.5","0.5","0.5","0.5","0.5","0.5","0.5","0.5","0.5","0.5","0.5","0.5","0.5",".",".","1","1","1","1",".",".","0","0","0","0","0","0","0","0","0","0","0","0","0","0","0","0","0",".",".","1","1","1","1","1","1","1","1","1","1","1","1","1","1","1","1","1","1","1","1","1","1","1","1","1",".",".","0.5","0.5","0.5","0.5","0.5","0.5","0.5","0.5","0.5","0.5","0.5","0.5","0.5","0.5",".",".","1","1","1","1","1","1","1","","","","","","","","","","","","","","","","","","","","","","","","","","","","","","","","","","","","","","","","","","","","","","","","","","",NA,NA,NA,NA,NA,667,NA,0,0,2500,0,2500,"sol-ichart-v1-processed","./","V1","yes","OK","child",77,"birdy","none","known_sign",32,"include","> 26.5 Months","C_T","1",2,8,667,2,25,1500,4,4,0.588235294117647,TRUE,TRUE,TRUE
"30010",44,"F","sol-vanilla-2",21,"","car2R.pct","","book2L.pct","r","book2L.pct","Vanilla","D",NA,NA,2231,8000,"0.5","0.5","0.5","0.5","0.5","0.5","0.5","0.5","0.5","0.5","0.5","0.5","0.5","0.5","0.5","0.5","0.5",".",".",".",".",".",".",".",".",".",".",".",".",".",".",".",".",".",".",".",".",".",".",".",".",".",".",".",".",".",".",".",".",".",".",".",".",".",".",".",".",".",".",".",".",".",".",".",".",".",".",".",".",".",".",".",".",".",".",".",".",".",".",".",".",".",".",".",".",".",".",".",".",".",".",".",".",".",".",".",".",".",".",".",".",".",".",".",".",".",".",".",".",".",".",".",".",".",".","","","","","","","","","","","","","","","","","","","","","","","","","","","","","","","","",NA,NA,NA,NA,NA,NA,NA,0,0,2500,0,2500,"sol-ichart-v1-processed","./","V1","yes","OK","child",77,"book","none","known_sign",32,"include","> 26.5 Months","no_shift","1",59,59,567,NA,0,NA,1,0,0.5,NA,NA,FALSE
"30010",44,"F","sol-vanilla-2",22,"","shoe2R.pct","","ball2L.pct","r","ball2L.pct","Vanilla","A",3,33,2198,8000,"1",".",".",".","0","0","0","0","0","0","0","0","0","0","0","0","0","0","0","0","0","0","0","0",".",".","0.5","0.5","0.5","0.5","0.5","0.5","0.5","0.5","0.5","0.5","0.5","0.5","0.5","0.5","0.5","0.5","0.5","0.5","0.5","0.5","0.5","0.5","0.5","0.5","0.5","0.5",".",".","1","1","1","1","1","1","1","1","1","1","1","1","1","1","1","1","1","1","1","1","1","1","1","1","1","1","1","1","1","1","1","1","1","1","1","1","1","1","1","1","1","1","1","1","1","1","1","1","1","1","1","1","1","1","1","1","1","1","1","1","1","1","1","1","1","1","1","1","1","1","1","1","1","1","1","1","1","1","1","1","","","","","","","","","","","","","",NA,NA,NA,NA,NA,33,NA,0,0,2500,0,2500,"sol-ichart-v1-processed","./","V1","yes","OK","child",77,"ball","none","known_sign",32,"include","> 26.5 Months","off_signer","1",4,7,1667,3,22,800,2,20,0.521739130434783,TRUE,FALSE,TRUE
"30010",44,"F","sol-vanilla-2",23,"","teddy1R.pct","","doll2L.pct","l","teddy1R.pct","Vanilla","A",3,600,2099,8000,"0","0","0","0","0","0","0","0","0","0","0","0","0","0","0","0","0","0",".",".",".","0.5","0.5","0.5","0.5","0.5","0.5","0.5","0.5","0.5","0.5","0.5","0.5","0.5","0.5","0.5","0.5","0.5","0.5","0.5","0.5","0.5","0.5","0.5","0.5","0.5","0.5","0.5","0.5","0.5","0.5","0.5","0.5","0.5","0.5","0.5","0.5","0.5","0.5","0.5","0.5","0.5","0.5","0.5","0.5","0.5","0.5","0.5","0.5",".",".",".","1","1","1","1","1","1","1","1","1","1","1","1","1","1","1","1","1","1","1","1","1","1","1","1","1","1","1","1","1","1","1","1","1","1","1","1","1",".",".","0.5","0.5","0.5","0.5","0.5","0.5","0.5","0.5","0.5","0.5","0.5","0.5","","","","","","","","","","","","","","","","","","","","","","","","",NA,NA,NA,NA,NA,2300,NA,0,0,2500,0,2500,"sol-ichart-v1-processed","./","V1","yes","OK","child",77,"teddy","none","known_sign",32,"include","> 26.5 Months","off_signer","0",6,6,2200,6,18,600,1,4,0.4,TRUE,TRUE,TRUE
"30010",44,"F","sol-vanilla-2",24,"","car3R.pct","","book3L.pct","l","car3R.pct","Vanilla","D",2,800,1891,8000,"0.5","0.5","0.5","0.5","0.5","0.5","0.5","0.5","0.5","0.5","0.5","0.5","0.5","0.5","0.5","0.5","0.5","0.5","0.5","0.5","0.5","0.5","0.5","0.5",".",".","1","1","1","1","1","1","1","1","1","1","1","1","1","1","1","1","1","1","1","1","1","1","1","1","1","1","1","1","1","1","1","1","1","1","1","1","1","1","1","1","1","1","1","1","1","1","1","1","1","1","1","1","1","1","1","1","1","1","1","1","1","1","1","1","1","1","1","1","1","1","1","1","1","1","1","1","1","1","1","1","1","","","","","","","","","","","","","","","","","","","","","","","","","","","","","","","","","","","","","","","","",NA,NA,NA,NA,NA,800,NA,0,0,2500,0,2500,"sol-ichart-v1-processed","./","V1","yes","OK","child",77,"car","none","known_sign",32,"include","> 26.5 Months","C_T","1",2,2,800,2,50,800,1,50,0.837837837837838,TRUE,TRUE,TRUE
"30010",44,"F","sol-vanilla-2",25,"","birdy3R.pct","","kitty3L.pct","r","kitty3L.pct","Vanilla","D",2,1267,2297,8000,"0.5","0.5","0.5","0.5","0.5","0.5","0.5","0.5","0.5","0.5","0.5","0.5","0.5","0.5","0.5","0.5","0.5","0.5","0.5","0.5","0.5","0.5","0.5","0.5","0.5","0.5","0.5","0.5","0.5","0.5","0.5","0.5","0.5","0.5","0.5","0.5","0.5","0.5",".",".","1","1","1","1","1","1","1","1","1","1","1","1","1","1","1","1","1","1","1","1","1","1","1","1","1","1","1",".",".",".",".",".",".",".","0.5","0.5","0.5","0.5","0.5","0.5","0.5","0.5","0.5","0.5","0.5","0.5","0.5","0.5","0.5","0.5","0.5","0.5","0.5","0.5","0.5","0.5","0.5","0.5","0.5","0.5","0.5",".",".","1","1","1","1","1","1","1","1","1","1","1","1","1","1","1","1","1","1","1","1","1","1","1","1","1","1","1","1","1","1","1","1","","","","","","","","","","","","",NA,NA,NA,NA,NA,1267,NA,0,0,2500,0,2500,"sol-ichart-v1-processed","./","V1","yes","OK","child",77,"kitty","none","known_sign",32,"include","> 26.5 Months","C_T","1",7,9,2233,2,27,1267,2,27,0.701492537313433,TRUE,TRUE,TRUE
"30010",44,"F","sol-vanilla-2",26,"","shoe3R.pct","","ball3L.pct","l","shoe3R.pct","Vanilla","D",1,2333,3033,8000,"0.5","0.5","0.5","0.5","0.5","0.5","0.5","0.5","0.5","0.5","0.5","0.5","0.5","0.5","0.5","0.5","0.5","0.5","0.5","0.5","0.5","0.5","0.5","0.5","0.5","0.5","0.5","0.5","0.5","0.5","0.5","0.5","0.5","0.5","0.5","0.5","0.5","0.5","0.5","0.5","0.5","0.5","0.5","0.5","0.5","0.5","0.5","0.5","0.5","0.5","0.5","0.5","0.5","0.5","0.5","0.5","0.5","0.5","0.5","0.5","0.5","0.5","0.5","0.5","0.5","0.5","0.5","0.5","0.5","0.5",".","0","0","0","0","0","0","0","0","0","0","0",".",".",".","1","1","1","1","1","1","1","1","1","1","1","1","1","1","1","1","1","1","1","1","1","1","1","1","1","1","1","1","1","1","1","1","1","1","1","1","1","1","1","1","1","1","1","1","1","1","1","1","1","1","1","1","1","1","1","1","1","1","1","1","","",NA,NA,NA,NA,NA,2333,NA,0,0,2500,0,2500,"sol-ichart-v1-processed","./","V1","yes","OK","child",77,"shoe","none","known_sign",32,"include","> 26.5 Months","C_D","0",1,1,2333,1,5,NA,1,5,0.466666666666667,TRUE,FALSE,TRUE
"30010",44,"F","sol-vanilla-2",27,"","teddy2.pct","","doll3L.pct","r","doll3L.pct","Vanilla","D",3,1900,2066,8000,"0.5","0.5","0.5","0.5","0.5","0.5","0.5","0.5","0.5","0.5","0.5","0.5","0.5","0.5","0.5","0.5","0.5","0.5","0.5","0.5","0.5","0.5","0.5","0.5","0.5","0.5","0.5","0.5","0.5","0.5","0.5","0.5","0.5","0.5","0.5","0.5","0.5","0.5","0.5","0.5","0.5","0.5","0.5","0.5","0.5","0.5","0.5","0.5","0.5","0.5","0.5","0.5","0.5","0.5","0.5","0.5","0.5",".",".",".","0","0","0","0","0","0","0","0","0","0","0","0","0","0","0",".",".",".","1","1","1","1","1","1","1","1","1","1","1","1","1","1","1","1","1","1","1",".",".",".",".",".",".",".","0.5","0.5","0.5","0.5","0.5","0.5","0.5","0.5","","","","","","","","","","","","","","","","","","","","","","","","","","","","","","","","","","","",NA,NA,NA,NA,NA,1900,NA,0,0,2500,0,2500,"sol-ichart-v1-processed","./","V1","yes","OK","child",77,"doll","none","known_sign",32,"include","> 26.5 Months","C_D","0",3,4,1900,3,15,NA,2,15,0.395833333333333,TRUE,TRUE,TRUE
"30010",44,"F","sol-vanilla-2",29,"","kitty1R.pct","","birdy1L.pct","l","kitty1R.pct","Vanilla","A",3,0,2297,8000,".",".",".",".",".",".",".",".",".",".",".",".",".",".",".",".",".",".",".",".",".",".","-",".","0.5","0.5","0.5","0.5","0.5","0.5","0.5","0.5","0.5","0.5","0.5","0.5","0.5","0.5","0.5","0.5","0.5","0.5","0.5","0.5","0.5","0.5","0.5","0.5","0.5","0.5","0.5","0.5","0.5","0.5","0.5","0.5","0.5","0.5","0.5","0.5","0.5","0.5","0.5","0.5",".",".","1","1","1","1","1","1","1","1","1","1","1","1","1",".",".",".","0","0","0","0","0","0","0","0","0","0","0","0",".",".","0.5","0.5","0.5","0.5","0.5","0.5","0.5","0.5","0.5","0.5","0.5","0.5","0.5","0.5","0.5","0.5","0.5","0.5","0.5","0.5","0.5","0.5","0.5","0.5","0.5","0.5","0.5","0.5","0.5","0.5","0.5","0.5","0.5","0.5","0.5","0.5","0.5","0.5","0.5","","","","","","","","","","","","",NA,NA,NA,NA,NA,2633,NA,0,0,2500,0,2500,"sol-ichart-v1-processed","./","V1","yes","OK","child",77,"kitty","none","known_sign",32,"include","> 26.5 Months","off_signer","1",26,26,1333,26,10,0,1,10,0.6,FALSE,FALSE,FALSE
"30010",44,"F","sol-vanilla-2",30,"","ball1R.pct","","shoe1L.pct","l","ball1R.pct","Vanilla","D",2,833,1891,8000,"0.5","0.5","0.5","0.5","0.5","0.5","0.5","0.5","0.5","0.5","0.5","0.5","0.5","0.5","0.5","0.5","0.5","0.5","0.5","0.5","0.5","0.5","0.5","0.5","0.5",".",".","1","1","1","1","1","1","1","1","1","1","1","1","1","1",".",".",".",".",".",".",".",".",".",".",".",".",".",".",".",".",".",".",".",".",".",".",".",".",".",".",".",".",".",".",".",".",".",".",".",".",".",".",".",".",".",".",".",".",".",".",".",".",".",".",".",".",".",".",".",".",".","","","","","","","","","","","","","","","","","","","","","","","","","","","","","","","","","","","","","","","","","","","","","","","","","",NA,NA,NA,NA,NA,833,NA,0,0,2500,0,2500,"sol-ichart-v1-processed","./","V1","yes","OK","child",77,"ball","none","known_sign",32,"include","> 26.5 Months","C_T","1",35,37,1367,2,14,833,2,14,0.67948717948718,TRUE,TRUE,FALSE
"30010",44,"F","sol-vanilla-2",31,"","doll1R.pct","","teddy3.pct","r","teddy3.pct","Vanilla","D",1,1000,2099,8000,"0.5","0.5","0.5","0.5","0.5","0.5","0.5","0.5","0.5","0.5","0.5","0.5","0.5","0.5","0.5","0.5","0.5","0.5","0.5","0.5","0.5","0.5","0.5","0.5","0.5","0.5","0.5","0.5","0.5","0.5",".","0","0","0","0","0","0",".",".",".","1","1","1","1","1","1","1","1","1","1","1","1","1","1","1","1","1","1","1","1","1","1","1","1","1","1","1","1","1","1","1","1","1","1","1","1","1","1","1","1","1","1","1","1","1","1",".",".",".",".",".",".",".",".",".",".",".",".",".",".",".",".",".",".",".",".",".",".",".",".",".",".",".",".",".",".",".",".",".",".",".",".",".",".","","","","","","","","","","","","","","","","","","","","","","","",NA,NA,NA,NA,NA,1000,NA,0,0,2500,0,2500,"sol-ichart-v1-processed","./","V1","yes","OK","child",77,"teddy","none","known_sign",32,"include","> 26.5 Months","C_D","1",3,4,1233,1,36,1233,2,6,0.708333333333333,TRUE,TRUE,TRUE
"30010",44,"F","sol-vanilla-2",32,"","kitty4R.pct","","birdy4L.pct","r","birdy4L.pct","Vanilla","A",NA,NA,1957,8000,".",".",".",".",".",".",".",".",".",".",".",".",".",".",".",".",".",".",".",".",".",".",".",".",".",".",".",".",".",".",".",".",".",".",".",".",".",".",".",".",".",".",".",".",".",".",".",".",".",".",".",".",".",".",".",".",".",".",".",".",".",".",".",".",".",".",".",".",".",".",".",".",".",".",".",".",".",".",".",".",".",".",".",".",".",".",".",".",".",".",".",".",".",".",".",".","","","","","","","","","","","","","","","","","","","","","","","","","","","","","","","","","","","","","","","","","","","","","","","","","","","",NA,NA,NA,NA,NA,NA,NA,0,0,2500,0,2500,"sol-ichart-v1-processed","./","V1","yes","OK","child",77,"birdy","none","known_sign",32,"include","> 26.5 Months","off_signer","1",76,76,0,NA,0,NA,1,0,NA,NA,NA,FALSE
"30010",44,"F","sol-vanilla-2",33,"","book1R.pct","","car1L.pct","l","book1R.pct","Vanilla","D",5,767,2231,8000,"0.5","0.5","0.5","0.5","0.5","0.5","0.5","0.5","0.5","0.5","0.5","0.5","0.5","0.5","0.5","0.5","0.5","0.5","0.5","0.5","0.5","0.5","0.5",".",".",".",".",".","1","1","1","1","1","1","1","1","1","1","1","1","1","1","1","1","1","1","1","1","1","1","1","1","1","1","1","1","1","1","1","1","1","1","1","1","1","1","1","1","1","1","1","1","1","1","1","1","1","1","1","1","1","1","1","1","1","1","1","1","1","1","1","1","1","1","1","1","1",".",".",".","0.5","0.5","0.5","0.5","0.5","0.5","0.5","0.5",".",".",".",".",".",".",".",".",".","","","","","","","","","","","","","","","","","","","","","","","","","","","","","","",NA,NA,NA,NA,NA,767,NA,0,0,2500,0,2500,"sol-ichart-v1-processed","./","V1","yes","OK","child",77,"book","none","known_sign",32,"include","> 26.5 Months","C_T","1",5,5,767,5,48,767,1,48,0.838028169014085,TRUE,TRUE,TRUE
"30010",44,"F","sol-vanilla-2",34,"","ball4R.pct","","shoe4L.pct","r","shoe4L.pct","Vanilla","D",2,NA,3033,8000,"0.5","0.5","0.5","0.5","0.5","0.5","0.5","0.5","0.5","0.5","0.5","0.5","0.5","0.5","0.5","0.5","0.5","0.5","0.5","0.5","0.5","0.5","0.5","0.5","0.5","0.5","0.5","0.5","0.5","0.5","0.5","0.5","0.5","0.5","0.5","0.5","0.5","0.5","0.5","0.5","0.5","0.5","0.5","0.5","0.5","0.5","0.5","0.5","0.5","0.5","0.5","0.5","0.5","0.5","0.5","0.5","0.5","0.5","0.5","0.5","0.5","0.5","0.5","0.5","0.5","0.5","0.5","0.5","0.5","0.5","0.5","0.5","0.5","0.5","0.5","0.5","0.5","0.5","0.5","0.5","0.5","0.5","0.5","0.5","0.5","0.5",".",".","1","1","1","1","1","1","1","1","1","1","1","1","1","1","1","1","1","1","1","1","1","1","1","1","1","1","1","1","1","1","1","1","1","1","1","1","1","1","1","1","1","1","1","1","1","1","1","1","1","1","1","1","1","1","1","1","","","",NA,NA,NA,NA,NA,2867,NA,0,0,2500,0,2500,"sol-ichart-v1-processed","./","V1","yes","OK","child",77,"shoe","none","known_sign",32,"include","> 26.5 Months","no_shift","1",0,0,NA,NA,0,NA,0,0,0.5,NA,NA,TRUE
"30010",44,"F","sol-vanilla-2",35,"","doll4R.pct","","teddy1R.pct","l","doll4R.pct","Vanilla","D",2,1233,2066,8000,"0.5","0.5","0.5","0.5","0.5","0.5","0.5","0.5","0.5","0.5","0.5","0.5","0.5","0.5","0.5","0.5","0.5","0.5","0.5","0.5","0.5","0.5","0.5","0.5","0.5","0.5","0.5","0.5","0.5","0.5","0.5","0.5","0.5","0.5","0.5","0.5","0.5",".",".","1","1","1","1","1","1","1","1","1","1","1","1","1","1","1","1","1","1","1","1","1","1","1","1","1","1","1","1",".",".",".",".",".","0.5","0.5","0.5","0.5","0.5","0.5","0.5","0.5","0.5","0.5","0.5","0.5","0.5","0.5","0.5","0.5","0.5","0.5","0.5","0.5","0.5","0.5","0.5","0.5","0.5","0.5","0.5","0.5","0.5","0.5","0.5","0.5","0.5","0.5","0.5","0.5","0.5","0.5","0.5","","","","","","","","","","","","","","","","","","","","","","","","","","","","","","","","","","","","",NA,NA,NA,NA,NA,1233,NA,0,0,2500,0,2500,"sol-ichart-v1-processed","./","V1","yes","OK","child",77,"doll","none","known_sign",32,"include","> 26.5 Months","C_T","1",5,7,2233,2,28,1233,2,28,0.702898550724638,TRUE,TRUE,TRUE
"30010",44,"F","sol-vanilla-2",36,"","book4R.pct","","car4L.pct","r","car4L.pct","Vanilla","D",1,1133,1891,8000,"0.5","0.5","0.5","0.5","0.5","0.5","0.5","0.5","0.5","0.5","0.5","0.5","0.5","0.5","0.5","0.5","0.5","0.5","0.5","0.5","0.5","0.5","0.5","0.5","0.5","0.5","0.5","0.5","0.5","0.5","0.5","0.5","0.5","0.5",".","1","1","1","1","1","1","1","1","1","1","1","1","1","1","1","1","1","1","1","1","1","1","1","1","1","1","1","1","1","1","1","1","1","1","1","1","1","1","1","1","1","1","1","1","1","1","1","1","1","1","1","1","1","1","1","1","1","1","1",".",".",".","0.5","0.5","0.5","0.5","0.5","0.5","0.5","0.5","0.5","0.5","","","","","","","","","","","","","","","","","","","","","","","","","","","","","","","","","","","","","","","","",NA,NA,NA,NA,NA,1133,NA,0,0,2500,0,2500,"sol-ichart-v1-processed","./","V1","yes","OK","child",77,"car","none","known_sign",32,"include","> 26.5 Months","C_T","1",1,1,1133,1,41,1133,1,41,0.773333333333333,TRUE,TRUE,TRUE
"30011",16,"M","sol-vanilla-1",2,"","doll1R.pct","","teddy1R.pct","l","doll1R.pct","Vanilla","D",2,1600,1924,8000,"0.5","0.5","0.5","0.5","0.5","0.5","0.5","0.5","0.5","0.5","0.5","0.5","0.5","0.5","0.5","0.5","0.5","0.5","0.5","0.5","0.5","0.5","0.5","0.5","0.5","0.5","0.5","0.5","0.5","0.5","0.5","0.5","0.5","0.5","0.5","0.5","0.5","0.5","0.5","0.5","0.5","0.5","0.5","0.5","0.5","0.5","0.5","0.5",".",".","1","1","1","1","1","1","1","1","1","1","1","1","1","1","1","1","1","1","1","1","1","1","1","1","1","1","1","1","1","1","1","1","1","1","1",".",".","0.5","0.5","0.5","0.5","0.5","0.5","0.5","0.5","0.5","0.5","0.5","0.5","0.5","0.5","0.5","0.5","0.5","0.5","0.5","0.5","0.5","0.5","0.5","0.5","0.5","0.5","0.5","0.5","0.5","0.5","0.5","","","","","","","","","","","","","","","","","","","","","","","","","","","","","",NA,NA,NA,NA,NA,1600,NA,0,0,2500,0,2500,"sol-ichart-v1-processed","./","V1","yes","OK","child",19,"doll","none","known_sign",12,"include","< 26.5 Months","C_T","1",2,2,1600,2,26,1600,1,26,0.675675675675676,TRUE,TRUE,TRUE
"30011",16,"M","sol-vanilla-1",3,"","book1R.pct","","car1L.pct","r","car1L.pct","Vanilla","D",6,1333,1891,8000,"0.5","0.5","0.5","0.5","0.5","0.5","0.5","0.5","0.5","0.5","0.5","0.5","0.5","0.5","0.5","0.5","0.5","0.5","0.5","0.5","0.5","0.5","0.5","0.5","0.5","0.5","0.5","0.5","0.5","0.5","0.5","0.5","0.5","0.5","0.5","0.5","0.5","0.5","0.5","0.5",".",".",".",".",".",".","0","0","0","0","0","0","0","0","0","0","0","0","0","0","0","0","0","0","0","0","0",".","0.5","0.5","0.5","0.5","0.5","0.5","0.5","0.5","0.5","0.5","0.5","0.5","0.5","0.5","0.5","0.5","0.5","0.5","0.5","0.5","0.5","0.5","0.5","0.5","0.5","0.5","0.5","0.5","0.5","0.5","0.5","0.5","0.5","0.5","0.5","0.5","0.5","","","","","","","","","","","","","","","","","","","","","","","","","","","","","","","","","","","","","","","","","","",NA,NA,NA,NA,NA,1333,NA,0,0,2500,0,2500,"sol-ichart-v1-processed","./","V1","yes","OK","child",19,"car","none","known_sign",12,"include","< 26.5 Months","C_D","0",6,7,1333,6,21,NA,2,21,0.347826086956522,TRUE,TRUE,TRUE
"30011",16,"M","sol-vanilla-1",4,"","ball1R.pct","","shoe1L.pct","l","ball1R.pct","Vanilla","D",10,2133,2198,8000,"0.5","0.5","0.5","0.5","0.5","0.5","0.5","0.5","0.5","0.5","0.5","0.5","0.5","0.5","0.5","0.5","0.5","0.5","0.5","0.5","0.5","0.5","0.5","0.5","0.5","0.5","0.5","0.5","0.5","0.5","0.5","0.5","0.5","0.5","0.5","0.5","0.5","0.5","0.5","0.5","0.5","0.5","0.5","0.5","0.5","0.5","0.5","0.5","0.5","0.5","0.5","0.5","0.5","0.5","0.5","0.5","0.5","0.5","0.5","0.5","0.5","0.5","0.5","0.5",".",".",".",".",".",".",".",".",".",".","1","1","1","1","1","1","1","1","1","1","1","1","1","1","1",".",".","0.5","0.5","0.5","0.5","0.5","0.5","0.5","0.5","0.5","0.5","0.5","0.5","0.5","0.5","0.5","0.5","0.5","0.5","0.5","0.5","0.5","0.5","0.5","0.5","0.5","0.5","0.5","0.5","0.5","0.5","0.5","0.5","0.5","0.5","0.5","0.5","0.5","0.5","0.5","0.5","0.5","0.5","0.5","","","","","","","","","","","","","",NA,NA,NA,NA,NA,2133,NA,0,0,2500,0,2500,"sol-ichart-v1-processed","./","V1","yes","OK","child",19,"ball","none","known_sign",12,"include","< 26.5 Months","C_T","1",10,10,2133,10,2,2133,1,2,0.515151515151515,TRUE,FALSE,TRUE
"30011",16,"M","sol-vanilla-1",5,"","doll2R.pct","","teddy3.pct","r","teddy3.pct","Vanilla","D",5,1500,2099,8000,"0.5","0.5","0.5","0.5","0.5","0.5","0.5","0.5","0.5","0.5","0.5","0.5","0.5","0.5","0.5","0.5","0.5","0.5","0.5","0.5","0.5","0.5","0.5","0.5","0.5","0.5","0.5","0.5","0.5","0.5","0.5","0.5","0.5","0.5","0.5","0.5","0.5","0.5","0.5","0.5","0.5","0.5","0.5","0.5","0.5",".",".",".",".",".","1","1","1","1","1","1","1","1","1","1","1","1","1","1","1","1","1","1","1","1","1","1","1",".",".","0","0","0","0","0","0","0","0","0","0","0","0","0","0","0","0","0","0","0","0","0","0","0","0","0","0","0","0","0","0","0","0","0","0","0",".",".","0.5","0.5","0.5","0.5","0.5","0.5","0.5","0.5","0.5","0.5","0.5","","","","","","","","","","","","","","","","","","","","","","","","",NA,NA,NA,NA,NA,1500,NA,0,0,2500,0,2500,"sol-ichart-v1-processed","./","V1","yes","OK","child",19,"teddy","none","known_sign",12,"include","< 26.5 Months","C_T","1",5,7,1500,5,23,1500,2,23,0.659420289855073,TRUE,TRUE,TRUE
"30011",16,"M","sol-vanilla-1",6,"","ball2R.pct","","shoe2L.pct","r","shoe2L.pct","Vanilla","D",NA,NA,1891,8000,"0.5","0.5","0.5","0.5","0.5","0.5","0.5","0.5","0.5","0.5","0.5","0.5","0.5","0.5","0.5","0.5","0.5","0.5","0.5","0.5","0.5","0.5","0.5","0.5","0.5","0.5","0.5","0.5","0.5","0.5","0.5","0.5","0.5","0.5","0.5","0.5","0.5","0.5","0.5","0.5","0.5","0.5","0.5","0.5","0.5","0.5","0.5","0.5","0.5","0.5","0.5","0.5","0.5","0.5","0.5","0.5","0.5","0.5","0.5","0.5","0.5","0.5","0.5","0.5","0.5","0.5","0.5","0.5","0.5","0.5","0.5","0.5","0.5","0.5","0.5","0.5","0.5","0.5","0.5","0.5","0.5","0.5","0.5","0.5","0.5","0.5","0.5","0.5","0.5","0.5","0.5","0.5","0.5","0.5","0.5","0.5","0.5","0.5","0.5","0.5","0.5","0.5","0.5","0.5","0.5","0.5","0.5","0.5","0.5","0.5","0.5","0.5","0.5","0.5","0.5","0.5","0.5","0.5","0.5","0.5","0.5","","","","","","","","","","","","","","","","","","","","","","","","","","",NA,NA,NA,NA,NA,NA,NA,0,0,2500,0,2500,"sol-ichart-v1-processed","./","V1","yes","OK","child",19,"shoe","none","known_sign",12,"include","< 26.5 Months","no_shift","1",0,0,NA,NA,0,NA,0,0,0.5,NA,NA,TRUE
"30011",16,"M","sol-vanilla-1",7,"","kitty1R.pct","","birdy1L.pct","r","birdy1L.pct","Vanilla","D",NA,NA,2000,8000,"0.5","0.5","0.5","0.5","0.5","0.5","0.5","0.5","0.5","0.5","0.5","0.5","0.5","0.5","0.5","0.5","0.5","0.5","0.5","0.5","0.5","0.5","0.5","0.5","0.5","0.5","0.5","0.5","0.5","0.5","0.5","0.5","0.5","0.5","0.5","0.5","0.5","0.5","0.5","0.5","0.5","0.5","0.5","0.5","0.5","0.5","0.5","0.5","0.5",".",".",".",".",".",".",".",".",".",".",".",".",".",".",".",".",".",".",".",".",".",".",".",".",".",".",".",".",".",".",".",".",".",".",".",".",".",".",".",".",".",".",".",".",".",".","","","","","","","","","","","","","","","","","","","","","","","","","","","","","","","","","","","","","","","","","","","","","","","","","","","","",NA,NA,NA,NA,NA,NA,NA,0,0,2500,0,2500,"sol-ichart-v1-processed","./","V1","yes","OK","child",19,"birdy","none","known_sign",12,"include","< 26.5 Months","no_shift","1",27,27,1633,NA,0,NA,1,0,0.5,NA,NA,FALSE
"30011",16,"M","sol-vanilla-1",8,"","book2R.pct","","car2L.pct","l","book2R.pct","Vanilla","A",NA,NA,2231,8000,"0","0","0","0","0","0","0","0","0","0","0","0","0","0","0","0","0","0","0","0","0","0","0","0","0","0","0","0","0","0","0","0","0","0","0","0","0","0","0","0","0","0","0","0","0","0","0","0","0","0","0","0","0","0","0","0","0","0","0","0","0","0","0","0","0","0","0","0","0","0","0","0","0","0","0","0","0","0","0","0","0","0","0","0","0","0","0","0","0","0","0","0","0","0","0","0","0","0","0","0","0","0","0","0","0","0","0","0","0","0","0","0","0","0","","","","","","","","","","","","","","","","","","","","","","","","","","","","","","","","","",NA,NA,NA,NA,NA,NA,NA,0,0,2500,0,2500,"sol-ichart-v1-processed","./","V1","yes","OK","child",19,"book","none","known_sign",12,"include","< 26.5 Months","off_signer","0",0,0,NA,NA,76,NA,0,0,0,NA,NA,TRUE
"30011",16,"M","sol-vanilla-1",9,"","kitty2R.pct","","birdy2L.pct","l","kitty2R.pct","Vanilla","D",6,NA,3132,8000,"0.5","0.5","0.5","0.5","0.5","0.5","0.5","0.5","0.5","0.5","0.5","0.5","0.5","0.5","0.5","0.5","0.5","0.5","0.5","0.5","0.5","0.5","0.5","0.5","0.5","0.5","0.5","0.5","0.5","0.5","0.5","0.5","0.5","0.5","0.5","0.5","0.5","0.5","0.5","0.5","0.5","0.5","0.5","0.5","0.5","0.5","0.5","0.5","0.5","0.5","0.5","0.5","0.5","0.5","0.5","0.5","0.5","0.5","0.5","0.5","0.5","0.5","0.5","0.5","0.5","0.5","0.5","0.5","0.5","0.5","0.5","0.5","0.5","0.5","0.5","0.5","0.5","0.5","0.5","0.5","0.5","0.5","0.5","0.5","0.5","0.5","0.5","0.5","0.5","0.5","0.5","0.5","0.5","0.5","0.5","0.5",".",".",".",".",".",".","1","1","1","1","1","1","1","1","1","1","1","1","1","1","1","1","1","1","1","1","1","1","1","1","1","1","1","1","1","1","1","1","","","","","","","","","","","","","",NA,NA,NA,NA,NA,3200,NA,0,0,2500,0,2500,"sol-ichart-v1-processed","./","V1","yes","OK","child",19,"kitty","none","known_sign",12,"include","< 26.5 Months","no_shift","0",0,0,NA,NA,0,NA,0,0,0.5,NA,NA,TRUE
"30011",16,"M","sol-vanilla-1",11,"","car3R.pct","","book3L.pct","r","book3L.pct","Vanilla","A",NA,NA,2231,8000,".",".",".",".",".",".",".",".",".",".",".",".",".",".",".",".",".",".",".",".",".",".",".",".",".",".",".",".",".",".",".",".",".",".",".",".",".",".",".",".",".",".",".",".",".",".",".",".",".",".",".",".",".",".",".",".",".",".",".",".",".",".",".",".",".",".",".",".",".",".",".",".",".",".",".",".",".",".",".",".",".",".",".",".",".",".",".",".",".",".",".",".",".",".","-",".","1","1","1","1","1","1","1","1","1","1","1","1","1","1","1","1","1","1","1","1","","","","","","","","","","","","","","","","","","","","","","","","","","","","","","","",NA,NA,NA,NA,NA,NA,NA,0,0,2500,0,2500,"sol-ichart-v1-processed","./","V1","yes","OK","child",19,"book","none","known_sign",12,"include","< 26.5 Months","off_signer","0",76,76,0,NA,0,NA,1,0,NA,NA,NA,FALSE
"30011",16,"M","sol-vanilla-1",15,"","birdy4R.pct","","kitty4L.pct","l","birdy4R.pct","Vanilla","A",NA,NA,1957,8000,"1","1","1","1","1","1","1","1","1",".","0.5","0.5","0.5","0.5","0.5","0.5","0.5","0.5","0.5","0.5","0.5","0.5","0.5","0.5","0.5","0.5","0.5","0.5",".",".","1","1","1","1","1","1","1","1","1","1","1","1","1","1","1","1","1","1","1","1","1","1","1","1","1","1","1","1","1","1","1","1","1","1",".",".",".",".",".",".",".",".",".",".",".",".",".",".",".",".",".",".",".",".",".",".",".",".",".",".",".",".",".",".",".","","","","","","","","","","","","","","","","","","","","","","","","","","","","","","","","","","","","","","","","","","","","","","","","","","","","",NA,NA,NA,NA,NA,NA,NA,0,0,2500,0,2500,"sol-ichart-v1-processed","./","V1","yes","OK","child",19,"birdy","none","known_sign",12,"include","< 26.5 Months","off_signer","1",12,15,2133,NA,34,NA,2,0,0.852459016393443,NA,NA,TRUE
"30011",16,"M","sol-vanilla-1",18,"","shoe4R.pct","","ball4L.pct","l","shoe4R.pct","Vanilla","A",NA,NA,3033,8000,"0","0","0","0","0","0","0","0","0","0","0","0","0","0","0","0","0","0","0","0","0","0","0","0","0","0","0","0","0","0","0","0","0","0","0","0","0","0","0","0","0","0","0","0","0","0","0","0","0","0","0","0","0","0","0","0","0","0","0","0","0","0","0","0","0","0","0","0","0","0","0","0","0","0","0","0","0","0","0","0","0","0","0","0","0","0","0","0","0","0","0","0","0","0","0","0","0","0","0","0","0","0","0","0","0","0","0","0","0","0","0","0","0","0","0","0","0","0","0","0","0","0","0","0","0","0","0","0","0","0","0","0","0","0","0","0","0","0","0","0","0","0","0","0","0","","",NA,NA,NA,NA,NA,NA,NA,0,0,2500,0,2500,"sol-ichart-v1-processed","./","V1","yes","OK","child",19,"shoe","none","known_sign",12,"include","< 26.5 Months","off_signer","0",0,0,NA,NA,76,NA,0,0,0,NA,NA,TRUE
"30011",16,"M","sol-vanilla-1",20,"","kitty2R.pct","","birdy2L.pct","r","birdy2L.pct","Vanilla","A",NA,NA,1957,8000,"1","1","1","1","1","1","1","1","1","1","1","1","1","1","1","1","1","1","1","1","1","1","1","1","1","1","1","1","1","1","1","1","1","1","1","1","1","1","1","1","1","1","1","1","1","1","1","1","1","1","1","1","1","1","1","1","1","1","1","1","1","1","1","1","1","1","1","1","1","1","1","1","1","1","1","1","1","1","1","1","1","1","1","1","1","1","1","1","1","1","1","1","1","1","1","1","","","","","","","","","","","","","","","","","","","","","","","","","","","","","","","","","","","","","","","","","","","","","","","","","","","",NA,NA,NA,NA,NA,NA,NA,0,0,2500,0,2500,"sol-ichart-v1-processed","./","V1","yes","OK","child",19,"birdy","none","known_sign",12,"include","< 26.5 Months","off_signer","1",0,0,NA,NA,76,NA,0,0,1,NA,NA,TRUE
"30014",33,"M","sol-vanilla-2",2,"","teddy1R.pct","","doll1L.pct","r","doll1L.pct","Vanilla","D",2,NA,1924,8000,"0.5","0.5","0.5","0.5","0.5","0.5","0.5","0.5","0.5","0.5","0.5","0.5","0.5","0.5","0.5","0.5","0.5","0.5","0.5","0.5","0.5","0.5","0.5","0.5","0.5","0.5","0.5","0.5","0.5","0.5","0.5","0.5","0.5","0.5","0.5","0.5","0.5","0.5","0.5","0.5","0.5","0.5","0.5","0.5","0.5","0.5","0.5","0.5","0.5","0.5","0.5","0.5","0.5","0.5","0.5","0.5","0.5","0.5","0.5","0.5","0.5","0.5","0.5","0.5","0.5","0.5","0.5","0.5","0.5","0.5","0.5","0.5","0.5","0.5","0.5","0.5","0.5","0.5","0.5","0.5","0.5","0.5","0.5","0.5","0.5","0.5","0.5","0.5","0.5","0.5","0.5","0.5","0.5","0.5",".",".","0","0","0","0","0","0","0","0","0","0","0","0","0","0","0","0","0","0","0","0","0","0","0","0","","","","","","","","","","","","","","","","","","","","","","","","","","","",NA,NA,NA,NA,NA,3133,NA,0,0,2500,0,2500,"sol-ichart-v1-processed","./","V1","yes","OK","child",80,"doll","none","known_sign",24,"include","> 26.5 Months","no_shift","1",0,0,NA,NA,0,NA,0,0,0.5,NA,NA,TRUE
"30014",33,"M","sol-vanilla-2",3,"","car1R.pct","","book1L.pct","l","car1R.pct","Vanilla","A",NA,0,1891,8000,"-","-","-","-","-","-","-",".","0.5","0.5","0.5","0.5","0.5","0.5","0.5","0.5","0.5","0.5","0.5","0.5","0.5","0.5","0.5","0.5","0.5","0.5","0.5","0.5","0.5","0.5","0.5","0.5","0.5","0.5","0.5","0.5","0.5","0.5","0.5","0.5","0.5","0.5","0.5","0.5","0.5","0.5","0.5","0.5","0.5","0.5","0.5","0.5","0.5",".",".","1","1","1","1","1","1","1","1","1","1","1","1","1","1","1","1","1","1","1","1","1","1","1","1","1","1","1","1","1","1","1","1","1","1","1","1","1","1","1","1","1","1","1","1","1","1","1","1","1","1","1","1","1","","","","","","","","","","","","","","","","","","","","","","","","","","","","","","","","","","","","","","","",NA,NA,NA,NA,NA,NA,NA,0,0,2500,0,2500,"sol-ichart-v1-processed","./","V1","yes","OK","child",80,"car","none","known_sign",24,"include","> 26.5 Months","off_signer","1",10,10,1500,10,21,0,1,21,0.659090909090909,TRUE,FALSE,TRUE
"30014",33,"M","sol-vanilla-2",6,"","shoe2R.pct","","ball2L.pct","l","shoe2R.pct","Vanilla","A",NA,NA,1891,8000,"1","1","1","1","1",".","0.5","0.5","0.5","0.5","0.5","0.5","0.5","0.5","0.5","0.5","0.5","0.5","0.5","0.5","0.5","0.5","0.5","0.5","0.5","0.5","0.5","0.5","0.5","0.5","0.5","0.5","0.5","0.5","0.5","0.5","0.5","0.5","0.5","0.5",".","1","1","1","1","1","1","1","1","1","1","1","1","1",".",".",".",".",".",".",".",".",".",".",".",".",".",".",".",".",".",".",".",".",".",".",".",".",".",".",".",".",".",".","-",".","1","1","1","1","1","1","1","1","1","1","1","1","1","1","1","1","1","1",".",".","0.5","0.5","0.5","0.5","0.5","0.5","0.5","0.5","0.5",".","1","1","1","1","1","","","","","","","","","","","","","","","","","","","","","","","","","","",NA,NA,NA,NA,NA,NA,NA,0,0,2500,0,2500,"sol-ichart-v1-processed","./","V1","yes","OK","child",80,"shoe","none","known_sign",24,"include","> 26.5 Months","off_signer","1",22,24,1800,NA,13,NA,2,0,0.673076923076923,NA,NA,FALSE
"30014",33,"M","sol-vanilla-2",7,"","birdy1R.pct","","kitty1L.pct","l","birdy1R.pct","Vanilla","D",1,933,2000,8000,"0.5","0.5","0.5","0.5","0.5","0.5","0.5","0.5","0.5","0.5","0.5","0.5","0.5","0.5","0.5","0.5","0.5","0.5","0.5","0.5","0.5","0.5","0.5","0.5","0.5","0.5","0.5","0.5",".","1","1","1","1","1","1","1","1","1","1","1","1","1","1","1","1","1","1","1","1","1","1","1","1","1","1","1","1","1","1","1","1","1","1","1","1","1","1","1","1","1","1","1","1","1","1","1","1","1","1",".",".","0.5","0.5","0.5","0.5","0.5","0.5","0.5","0.5","0.5","0.5","0.5","0.5","0.5","0.5","0.5","0.5","0.5","","","","","","","","","","","","","","","","","","","","","","","","","","","","","","","","","","","","","","","","","","","","","","","","","",NA,NA,NA,NA,NA,933,NA,0,0,2500,0,2500,"sol-ichart-v1-processed","./","V1","yes","OK","child",80,"birdy","none","known_sign",24,"include","> 26.5 Months","C_T","1",1,1,933,1,47,933,1,47,0.813333333333333,TRUE,TRUE,TRUE
"30014",33,"M","sol-vanilla-2",12,"","kitty3R.pct","","birdy3L.pct","l","kitty3R.pct","Vanilla","D",7,NA,2297,8000,"0.5","0.5","0.5","0.5","0.5","0.5","0.5","0.5","0.5","0.5","0.5","0.5","0.5","0.5","0.5","0.5","0.5","0.5","0.5","0.5","0.5","0.5","0.5","0.5","0.5","0.5","0.5","0.5","0.5","0.5","0.5","0.5","0.5","0.5","0.5","0.5","0.5","0.5","0.5","0.5","0.5","0.5","0.5","0.5","0.5","0.5","0.5","0.5","0.5","0.5","0.5","0.5","0.5","0.5","0.5","0.5","0.5","0.5","0.5","0.5","0.5","0.5","0.5","0.5","0.5","0.5","0.5","0.5","0.5","0.5","0.5",".",".",".",".",".",".",".","0","0","0","0","0","0","0","0","0","0","0","0","0","0","0","0","0","0","0","0","0","0","0","0","0","0","0","0","0","0","0","0","0","0","0","0","0","0","0","0","0","0","0","0","0","0","0","0","0","0","0","0","0","0","0","0","0","","","","","","","","","","","","",NA,NA,NA,NA,NA,2367,NA,0,0,2500,0,2500,"sol-ichart-v1-processed","./","V1","yes","OK","child",80,"kitty","none","known_sign",24,"include","> 26.5 Months","C_D","1",5,5,2367,NA,0,NA,1,0,0.5,NA,NA,TRUE
"30014",33,"M","sol-vanilla-2",13,"","doll3R.pct","","teddy2.pct","r","teddy2.pct","Vanilla","A",NA,NA,1957,8000,"0","0","0","0","0","0","0","0","0","0","0","0","0","0","0","0","0","0","0","0","0","0","0","0","0","0","0","0",".","0.5","0.5","0.5","0.5","0.5","0.5","0.5","0.5","0.5","0.5","0.5","0.5","0.5","0.5","0.5","0.5","0.5","0.5","0.5","0.5","0.5","0.5",".",".",".",".",".",".",".",".",".",".",".",".",".",".",".",".",".",".",".","0","0","0","0","0","0","0","0","0","0","0","0","0","0","0","0","0","0","0","0","0","0","0","0","0","0","0","0","0","","","","","","","","","","","","","","","","","","","","","","","","","","","","","","","","","","","","","","","","","","","","","","","","",NA,NA,NA,NA,NA,NA,NA,0,0,2500,0,2500,"sol-ichart-v1-processed","./","V1","yes","OK","child",80,"teddy","none","known_sign",24,"include","> 26.5 Months","off_signer","0",20,20,1667,NA,28,NA,1,0,0.196428571428571,NA,NA,FALSE
"30014",33,"M","sol-vanilla-2",14,"","ball3R.pct","","shoe3L.pct","l","ball3R.pct","Vanilla","D",2,1567,2198,8000,"0.5","0.5","0.5","0.5","0.5","0.5","0.5","0.5","0.5","0.5","0.5","0.5","0.5","0.5","0.5","0.5","0.5","0.5","0.5","0.5","0.5","0.5","0.5","0.5","0.5","0.5","0.5","0.5","0.5","0.5","0.5","0.5","0.5","0.5","0.5","0.5","0.5","0.5","0.5","0.5","0.5","0.5","0.5","0.5","0.5","0.5","0.5",".",".","1","1","1","1","1","1","1","1","1","1","1","1","1","1","1","1","1","1","1","1","1","1","1","1","1","1",".",".",".",".",".",".",".",".",".",".",".",".",".",".",".",".",".",".",".",".",".",".",".",".",".",".",".",".",".",".",".",".",".",".",".",".",".",".",".",".",".",".",".","-",".","1","1","1","1","1","1","1","1","1","1","1","1","1","1","1","","","","","","","","","","","","",NA,NA,NA,NA,NA,1567,NA,0,0,2500,0,2500,"sol-ichart-v1-processed","./","V1","yes","OK","child",80,"ball","none","known_sign",24,"include","> 26.5 Months","C_T","1",2,3,1567,2,26,1567,2,26,0.678082191780822,TRUE,TRUE,TRUE
"30014",33,"M","sol-vanilla-2",15,"","kitty4R.pct","","birdy4L.pct","r","birdy4L.pct","Vanilla","D",2,500,1957,8000,"0.5","0.5","0.5","0.5","0.5","0.5","0.5","0.5","0.5","0.5","0.5","0.5","0.5","0.5","0.5",".",".","0","0","0","0","0","0","0",".",".","1","1","1","1","1","1","1","1","1","1","1","1","1","1","1","1","1","1","1","1","1","1","1","1","1","1",".",".",".",".",".",".",".",".",".",".",".",".",".",".",".",".",".",".",".",".",".",".",".",".",".",".",".",".",".",".",".",".",".",".",".",".",".",".",".",".",".",".",".","","","","","","","","","","","","","","","","","","","","","","","","","","","","","","","","","","","","","","","","","","","","","","","","","","","","",NA,NA,NA,NA,NA,500,NA,0,0,2500,0,2500,"sol-ichart-v1-processed","./","V1","yes","OK","child",80,"birdy","none","known_sign",24,"include","> 26.5 Months","C_D","1",24,28,1733,2,26,800,3,7,0.697916666666667,TRUE,FALSE,FALSE
"30014",33,"M","sol-vanilla-2",16,"","doll4R.pct","","teddy3.pct","l","doll4R.pct","Vanilla","D",NA,NA,1924,8000,"0.5","0.5","0.5","0.5","0.5","0.5","0.5","0.5","0.5","0.5","0.5","0.5","0.5","0.5","0.5","0.5","0.5","0.5","0.5","0.5","0.5","0.5","0.5","0.5","0.5","0.5","0.5","0.5","0.5","0.5","0.5","0.5","0.5","0.5","0.5","0.5","0.5","0.5","0.5","0.5","0.5","0.5","0.5","0.5","0.5","0.5","0.5","0.5","0.5","0.5","0.5","0.5","0.5","0.5","0.5","0.5","0.5","0.5","0.5","0.5","0.5","0.5","0.5","0.5","0.5","0.5","0.5","0.5","0.5","0.5","0.5","0.5","0.5","0.5","0.5","0.5","0.5","0.5","0.5","0.5","0.5","0.5","0.5","0.5","0.5","0.5","0.5","0.5","0.5","0.5","0.5","0.5","0.5","0.5","0.5","0.5","0.5","0.5","0.5","0.5","0.5","0.5","0.5","0.5","0.5","0.5","0.5","0.5","0.5","0.5","0.5","0.5","0.5","0.5","0.5","0.5","0.5","0.5","","","","","","","","","","","","","","","","","","","","","","","","","","","","","",NA,NA,NA,NA,NA,NA,NA,0,0,2500,0,2500,"sol-ichart-v1-processed","./","V1","yes","OK","child",80,"doll","none","known_sign",24,"include","> 26.5 Months","no_shift","1",0,0,NA,NA,0,NA,0,0,0.5,NA,NA,TRUE
"30014",33,"M","sol-vanilla-2",17,"","book4R.pct","","car4L.pct","r","car4L.pct","Vanilla","A",NA,NA,1891,8000,"0","0","0","0","0",".","0.5","0.5","0.5","0.5","0.5","0.5","0.5","0.5","0.5","0.5","0.5","0.5","0.5","0.5","0.5","0.5","0.5","0.5","0.5","0.5","0.5","0.5","0.5","0.5","0.5","0.5","0.5","0.5","0.5","0.5","0.5","0.5","0.5","0.5","0.5","0.5","0.5","0.5","0.5","0.5","0.5","0.5","0.5","0.5","0.5","0.5","0.5","0.5","0.5","0.5","0.5","0.5","0.5","0.5","0.5","0.5","0.5","0.5","0.5","0.5","0.5","0.5","0.5","0.5","0.5","0.5","0.5","0.5","0.5","0.5","0.5","0.5","0.5","0.5","0.5","0.5","0.5","0.5","0.5","0.5","0.5","0.5","0.5","0.5","0.5","0.5","0.5","0.5","0.5","0.5","0.5","0.5","0.5","0.5","0.5","0.5","0.5","0.5","0.5","0.5","","","","","","","","","","","","","","","","","","","","","","","","","","","","","","","","","","","","","","","","","",NA,NA,NA,NA,NA,NA,NA,0,0,2500,0,2500,"sol-ichart-v1-processed","./","V1","yes","OK","child",80,"car","none","known_sign",24,"include","> 26.5 Months","off_signer","0",1,1,167,NA,5,NA,1,0,0.466666666666667,NA,NA,TRUE
"30014",33,"M","sol-vanilla-2",18,"","ball4R.pct","","shoe4L.pct","r","shoe4L.pct","Vanilla","D",1,1800,3033,8000,"0.5","0.5","0.5","0.5","0.5","0.5","0.5","0.5","0.5","0.5","0.5","0.5","0.5","0.5","0.5","0.5","0.5","0.5","0.5","0.5","0.5","0.5","0.5","0.5","0.5","0.5","0.5","0.5","0.5","0.5","0.5","0.5","0.5","0.5","0.5","0.5","0.5","0.5","0.5","0.5","0.5","0.5","0.5","0.5","0.5","0.5","0.5","0.5","0.5","0.5","0.5","0.5","0.5","0.5",".","1","1","1","1","1","1","1","1","1","1","1","1","1","1","1","1","1","1","1","1","1","1","1","1","1","1","1","1",".","0.5","0.5","0.5","0.5","0.5","0.5","0.5","0.5","0.5","0.5","0.5","0.5","0.5","0.5","0.5","0.5","0.5","0.5","0.5","0.5","0.5","0.5","0.5","0.5","0.5","0.5","0.5","0.5","0.5","0.5","0.5","0.5","0.5","0.5","0.5","0.5","0.5","0.5","0.5","0.5","0.5","0.5","0.5","0.5","0.5","0.5","0.5","0.5","0.5","0.5","0.5","0.5","0.5","0.5","0.5","0.5","0.5","0.5","0.5","0.5","0.5","","",NA,NA,NA,NA,NA,1800,NA,0,0,2500,0,2500,"sol-ichart-v1-processed","./","V1","yes","OK","child",80,"shoe","none","known_sign",24,"include","> 26.5 Months","C_T","1",1,1,1800,1,21,1800,1,21,0.64,TRUE,TRUE,TRUE
"30014",33,"M","sol-vanilla-2",20,"","birdy2R.pct","","kitty2L.pct","l","birdy2R.pct","Vanilla","D",2,1167,1957,8000,"0.5","0.5","0.5","0.5","0.5","0.5","0.5","0.5","0.5","0.5","0.5","0.5","0.5","0.5","0.5","0.5","0.5","0.5","0.5","0.5","0.5","0.5","0.5","0.5","0.5","0.5","0.5","0.5","0.5","0.5","0.5","0.5","0.5","0.5","0.5",".",".","1","1","1","1","1",".",".","0","0","0","0","0","0","0","0","0","0","0","0","0","0",".",".","1","1","1","1","1","1","1","1","1","1","1","1","1","1","1","1","1","1","1","1","1","1","1","1","1","1","1",".",".","0.5","0.5","0.5","0.5","0.5","0.5","0.5","0.5","","","","","","","","","","","","","","","","","","","","","","","","","","","","","","","","","","","","","","","","","","","","","","","","","","",NA,NA,NA,NA,NA,1167,NA,0,0,2500,0,2500,"sol-ichart-v1-processed","./","V1","yes","OK","child",80,"birdy","none","known_sign",24,"include","> 26.5 Months","C_T","1",2,6,1167,2,16,1933,3,5,0.55,TRUE,TRUE,TRUE
"30014",33,"M","sol-vanilla-2",21,"","car2R.pct","","book2L.pct","r","book2L.pct","Vanilla","D",NA,NA,2231,8000,"0.5","0.5","0.5","0.5","0.5","0.5","0.5","0.5","0.5","0.5","0.5","0.5","0.5","0.5","0.5","0.5","0.5","0.5","0.5","0.5","0.5","0.5","0.5","0.5","0.5","0.5","0.5","0.5","0.5","0.5","0.5","0.5","0.5","0.5","0.5","0.5","0.5","0.5","0.5","0.5","0.5","0.5","0.5","0.5","0.5","0.5","0.5","0.5","0.5","0.5","0.5","0.5","0.5","0.5","0.5","0.5","0.5","0.5","0.5","0.5","0.5","0.5","0.5","0.5","0.5","0.5","0.5","0.5","0.5","0.5","0.5","0.5","0.5","0.5","0.5","0.5","0.5","0.5","0.5","0.5","0.5","0.5","0.5","0.5","0.5","0.5","0.5","0.5","0.5","0.5","0.5","0.5","0.5","0.5","0.5","0.5","0.5","0.5","0.5","0.5","0.5","0.5","0.5","0.5","0.5","0.5","0.5","0.5","0.5","0.5","0.5","0.5","0.5","0.5","0.5","","","","","","","","","","","","","","","","","","","","","","","","","","","","","","","","",NA,NA,NA,NA,NA,NA,NA,0,0,2500,0,2500,"sol-ichart-v1-processed","./","V1","yes","OK","child",80,"book","none","known_sign",24,"include","> 26.5 Months","no_shift","1",0,0,NA,NA,0,NA,0,0,0.5,NA,NA,TRUE
"30014",33,"M","sol-vanilla-2",22,"","shoe2R.pct","","ball2L.pct","r","ball2L.pct","Vanilla","D",2,1300,2198,8000,"0.5","0.5","0.5","0.5","0.5","0.5","0.5","0.5","0.5","0.5","0.5","0.5","0.5","0.5","0.5","0.5","0.5","0.5","0.5","0.5","0.5","0.5","0.5","0.5","0.5","0.5","0.5","0.5","0.5","0.5","0.5","0.5","0.5","0.5","0.5","0.5","0.5","0.5","0.5",".",".","1","1","1","1","1","1","1","1","1","1","1","1","1","1","1","1","1","1","1","1","1","1","1","1","1","1","1","1","1",".","0.5","0.5","0.5","0.5","0.5","0.5","0.5","0.5","0.5","0.5","0.5","0.5","0.5","0.5","0.5","0.5","0.5","0.5","0.5","0.5","0.5","0.5",".","1","1","1","1","1","1","1","1","1","1","1","1",".",".",".",".",".","0.5","0.5","0.5","0.5","0.5","0.5","0.5","0.5","0.5","0.5","0.5","0.5","0.5","0.5","0.5","0.5","0.5","0.5","0.5","0.5","0.5","0.5","0.5","","","","","","","","","","","","","",NA,NA,NA,NA,NA,1300,NA,0,0,2500,0,2500,"sol-ichart-v1-processed","./","V1","yes","OK","child",80,"ball","none","known_sign",24,"include","> 26.5 Months","C_T","1",2,3,1300,2,29,1300,2,29,0.698630136986301,TRUE,TRUE,TRUE
"30014",33,"M","sol-vanilla-2",23,"","teddy1R.pct","","doll2L.pct","l","teddy1R.pct","Vanilla","D",2,1200,2099,8000,"0.5","0.5","0.5","0.5","0.5","0.5","0.5","0.5","0.5","0.5","0.5","0.5","0.5","0.5","0.5","0.5","0.5","0.5","0.5","0.5","0.5","0.5","0.5","0.5","0.5","0.5","0.5","0.5","0.5","0.5","0.5","0.5","0.5","0.5","0.5","0.5",".",".","1","1","1","1","1","1","1","1","1","1","1","1","1","1","1","1","1","1","1","1","1","1","1","1","1",".",".","0","0","0","0","0","0","0","0","0","0","0","0","0","0","0","0","0","0","0","0","0","0","0","0","0","0","0","0","0","0","0","0","0","0","0","0","0","0","0","0","0","0","0","0","0","0",".",".","0.5","0.5","0.5","0.5","0.5","0.5","0.5","0.5","0.5","0.5","","","","","","","","","","","","","","","","","","","","","","","","",NA,NA,NA,NA,NA,1200,NA,0,0,2500,0,2500,"sol-ichart-v1-processed","./","V1","yes","OK","child",80,"teddy","none","known_sign",24,"include","> 26.5 Months","C_T","1",2,4,1200,2,25,1200,2,25,0.597222222222222,TRUE,TRUE,TRUE
"30014",33,"M","sol-vanilla-2",24,"","car3R.pct","","book3L.pct","l","car3R.pct","Vanilla","A",2,0,1891,8000,".",".",".",".",".","-",".","0.5","0.5","0.5","0.5","0.5","0.5","0.5","0.5","0.5","0.5","0.5","0.5","0.5","0.5","0.5","0.5","0.5","0.5","0.5","0.5","0.5","0.5","0.5","0.5","0.5","0.5","0.5","0.5","0.5","0.5","0.5","0.5","0.5","0.5","0.5","0.5",".",".","1","1","1","1","1","1","1","1","1","1","1","1","1","1","1","1","1","1","1","1","1","1","1","1",".",".","0","0","0",".",".",".",".",".",".",".",".",".",".",".",".",".",".",".",".",".","-",".","0","0","0","0","0","0",".","0.5","0.5","0.5","0.5","0.5","0.5","0.5","","","","","","","","","","","","","","","","","","","","","","","","","","","","","","","","","","","","","","","","",NA,NA,NA,NA,NA,2300,NA,0,0,2500,0,2500,"sol-ichart-v1-processed","./","V1","yes","OK","child",80,"car","none","known_sign",24,"include","> 26.5 Months","off_signer","1",9,13,1200,9,24,0,3,24,0.666666666666667,TRUE,FALSE,TRUE
"30014",33,"M","sol-vanilla-2",25,"","birdy3R.pct","","kitty3L.pct","r","kitty3L.pct","Vanilla","D",2,867,2297,8000,"0.5","0.5","0.5","0.5","0.5","0.5","0.5","0.5","0.5","0.5","0.5","0.5","0.5","0.5","0.5","0.5","0.5","0.5","0.5","0.5","0.5","0.5","0.5","0.5","0.5","0.5",".",".","1","1","1","1","1","1","1","1","1","1","1","1","1","1","1","1","1","1","1","1","1","1","1","1","1",".",".","0","0","0","0","0","0","0","0","0","0","0","0",".","0.5","0.5","0.5","0.5","0.5","0.5","0.5","0.5","0.5","0.5","0.5","0.5","0.5","0.5","0.5","0.5","0.5","0.5","0.5","0.5",".",".","0","0","0","0","0","0","0","0","0","0","0","0","0",".","0.5","0.5","0.5","0.5","0.5","0.5","0.5","0.5","0.5","0.5","0.5","0.5","0.5","0.5","0.5","0.5","0.5","0.5","0.5","0.5","0.5","0.5",".",".",".",".",".",".",".",".",".","","","","","","","","","","","","",NA,NA,NA,NA,NA,867,NA,0,0,2500,0,2500,"sol-ichart-v1-processed","./","V1","yes","OK","child",80,"kitty","none","known_sign",24,"include","> 26.5 Months","C_T","1",2,5,867,2,25,867,3,25,0.591549295774648,TRUE,TRUE,TRUE
"30014",33,"M","sol-vanilla-2",26,"","shoe3R.pct","","ball3L.pct","l","shoe3R.pct","Vanilla","D",2,633,3033,8000,"0.5","0.5","0.5","0.5","0.5","0.5","0.5","0.5","0.5","0.5","0.5","0.5","0.5","0.5","0.5","0.5","0.5","0.5","0.5",".",".","1","1","1","1","1","1","1","1","1","1","1","1","1","1","1","1","1","1",".",".","0.5","0.5","0.5","0.5","0.5","0.5","0.5","0.5","0.5","0.5","0.5","0.5","0.5","0.5","0.5","0.5","0.5","0.5","0.5","0.5","0.5","0.5","0.5","0.5","0.5","0.5","0.5","0.5","0.5","0.5","0.5","0.5","0.5","0.5","0.5","0.5","0.5","0.5","0.5","0.5","0.5",".",".",".",".",".",".","1","1","1","1",".",".","0.5","0.5","0.5","0.5","0.5","0.5","0.5","0.5","0.5","0.5","0.5","0.5","0.5","0.5","0.5","0.5",".",".","1","1","1","1","1","1","1","1","1","1",".",".","0.5","0.5","0.5","0.5","0.5","0.5","0.5",".","1","1","1","1","1","1","1","1","1","1","1","1","1","","",NA,NA,NA,NA,NA,633,NA,0,0,2500,0,2500,"sol-ichart-v1-processed","./","V1","yes","OK","child",80,"shoe","none","known_sign",24,"include","> 26.5 Months","C_T","1",2,4,633,2,18,633,2,18,0.625,TRUE,TRUE,TRUE
"30014",33,"M","sol-vanilla-2",27,"","teddy2.pct","","doll3L.pct","r","doll3L.pct","Vanilla","D",1,2267,2066,8000,"0.5","0.5","0.5","0.5","0.5","0.5","0.5","0.5","0.5","0.5","0.5","0.5","0.5","0.5","0.5","0.5","0.5","0.5","0.5","0.5","0.5","0.5","0.5","0.5","0.5","0.5","0.5","0.5","0.5","0.5","0.5","0.5","0.5","0.5","0.5","0.5","0.5","0.5","0.5","0.5","0.5","0.5","0.5","0.5","0.5","0.5","0.5","0.5","0.5","0.5","0.5","0.5","0.5","0.5","0.5","0.5","0.5","0.5","0.5","0.5","0.5","0.5","0.5","0.5","0.5","0.5","0.5","0.5",".","0","0","0","0","0","0","0","0","0","0",".",".","1","1","1","1","1","1","1","1","1","1","1","1","1","1","1","1","1","1","1","1",".",".","0.5","0.5","0.5","0.5","0.5","0.5","0.5","0.5","0.5","","","","","","","","","","","","","","","","","","","","","","","","","","","","","","","","","","","",NA,NA,NA,NA,NA,2267,NA,0,0,2500,0,2500,"sol-ichart-v1-processed","./","V1","yes","OK","child",80,"doll","none","known_sign",24,"include","> 26.5 Months","C_D","0",1,1,2267,1,7,NA,1,7,0.453333333333333,TRUE,FALSE,TRUE
"30014",33,"M","sol-vanilla-2",30,"","ball1R.pct","","shoe1L.pct","l","ball1R.pct","Vanilla","D",2,900,1891,8000,"0.5","0.5","0.5","0.5","0.5","0.5","0.5","0.5","0.5","0.5","0.5","0.5","0.5","0.5","0.5","0.5","0.5","0.5","0.5","0.5","0.5","0.5","0.5","0.5","0.5","0.5","0.5",".",".","0","0","0","0","0","0",".",".","0.5","0.5","0.5","0.5","0.5",".","1","1","1","1","1","1","1","1","1","1","1","1","1","1","1",".",".","0.5","0.5","0.5","0.5","0.5","0.5","0.5","0.5","0.5","0.5","0.5","0.5","0.5","0.5","0.5","0.5","0.5",".",".","1","1","1","1","1","1","1","1","1","1","1","1","1","1","1","1","1","1","1","","","","","","","","","","","","","","","","","","","","","","","","","","","","","","","","","","","","","","","","","","","","","","","","","",NA,NA,NA,NA,NA,900,NA,0,0,2500,0,2500,"sol-ichart-v1-processed","./","V1","yes","OK","child",80,"ball","none","known_sign",24,"include","> 26.5 Months","C_D","1",3,7,1333,2,15,1167,3,6,0.565217391304348,TRUE,TRUE,TRUE
"30014",33,"M","sol-vanilla-2",31,"","doll1R.pct","","teddy3.pct","r","teddy3.pct","Vanilla","D",2,1233,2099,8000,"0.5","0.5","0.5","0.5","0.5","0.5","0.5","0.5","0.5","0.5","0.5","0.5","0.5","0.5","0.5","0.5","0.5","0.5","0.5","0.5","0.5","0.5","0.5","0.5","0.5","0.5","0.5","0.5","0.5","0.5","0.5","0.5","0.5","0.5","0.5","0.5","0.5",".",".","1","1","1","1","1","1","1","1","1","1","1","1","1","1","1","1","1","1","1","1","1","1","1","1","1","1",".",".","0","0","0","0","0","0","0","0","0","0","0","0","0","0","0","0","0","0","0","0","0","0","0","0","0","0","0","0","0","0","0","0","0","0","0","0","0","0","0","0","0","0","0","0",".",".","0.5","0.5","0.5","0.5","0.5","0.5","0.5","0.5","0.5","0.5","0.5","","","","","","","","","","","","","","","","","","","","","","","",NA,NA,NA,NA,NA,1233,NA,0,0,2500,0,2500,"sol-ichart-v1-processed","./","V1","yes","OK","child",80,"teddy","none","known_sign",24,"include","> 26.5 Months","C_T","1",2,4,1233,2,26,1233,2,26,0.618055555555556,TRUE,TRUE,TRUE
"30014",33,"M","sol-vanilla-2",34,"","ball4R.pct","","shoe4L.pct","r","shoe4L.pct","Vanilla","D",2,1600,3033,8000,"0.5","0.5","0.5","0.5","0.5","0.5","0.5","0.5","0.5","0.5","0.5","0.5","0.5","0.5","0.5","0.5","0.5","0.5","0.5","0.5","0.5","0.5","0.5","0.5","0.5","0.5","0.5","0.5","0.5","0.5","0.5","0.5","0.5","0.5","0.5","0.5","0.5","0.5","0.5","0.5","0.5","0.5","0.5","0.5","0.5","0.5","0.5","0.5",".",".","0","0","0","0","0","0","0","0","0","0","0","0","0","0",".",".","1","1","1","1","1","1","1","1","1","1","1","1","1","1","1","1","1","1","1","1","1","1","1","1","1","1","1","1","1","1","1","1","1","1","1","1","1","1","1","1","1","1","1",".",".","0.5","0.5","0.5","0.5","0.5","0.5","0.5","0.5","0.5","0.5","0.5",".",".",".",".",".",".","1","1","1","1","1","1","1","1","1","1","1","1","1","1","1","1","","","",NA,NA,NA,NA,NA,1600,NA,0,0,2500,0,2500,"sol-ichart-v1-processed","./","V1","yes","OK","child",80,"shoe","none","known_sign",24,"include","> 26.5 Months","C_D","0",2,4,1600,2,14,2133,2,14,0.472222222222222,TRUE,TRUE,TRUE
"30014",33,"M","sol-vanilla-2",35,"","doll4R.pct","","teddy1R.pct","l","doll4R.pct","Vanilla","A",29,400,2066,8000,"1","1","1","1","1","1","1","1","1","1","1","1",".",".","0.5","0.5","0.5","0.5","0.5","0.5","0.5","0.5","0.5","0.5","0.5","0.5","0.5","0.5","0.5","0.5","0.5","0.5","0.5","0.5","0.5","0.5","0.5","0.5","0.5","0.5","0.5","0.5","0.5","0.5",".",".",".",".",".",".",".",".",".",".",".",".",".",".",".",".",".",".",".",".",".",".",".",".",".",".",".",".",".","0","0","0","0","0","0","0","0","0","0","0","0","0","0","0","0","0","0","0","0","0","0",".",".","0.5","0.5","0.5","0.5","0.5","0.5","0.5",".",".","1","1","1","1","1","","","","","","","","","","","","","","","","","","","","","","","","","","","","","","","","","","","","",NA,NA,NA,NA,NA,1467,NA,0,0,2500,0,2500,"sol-ichart-v1-processed","./","V1","yes","OK","child",80,"doll","none","known_sign",24,"include","> 26.5 Months","off_signer","1",31,31,1400,31,12,NA,1,3,0.6,FALSE,FALSE,FALSE
"30014",33,"M","sol-vanilla-2",36,"","book4R.pct","","car4L.pct","r","car4L.pct","Vanilla","D",2,1167,1891,8000,"0.5","0.5","0.5","0.5","0.5","0.5","0.5","0.5","0.5","0.5","0.5","0.5","0.5","0.5","0.5","0.5","0.5","0.5","0.5","0.5","0.5","0.5","0.5","0.5","0.5","0.5","0.5","0.5","0.5","0.5","0.5","0.5","0.5","0.5","0.5",".",".","1","1","1","1","1","1","1","1","1","1","1","1","1","1","1","1","1","1","1","1","1","1","1","1","1","1","1","1","1","1","1","1","1","1",".",".","0.5","0.5","0.5","0.5","0.5","0.5","0.5","0.5","0.5","0.5","0.5","0.5","0.5","0.5","0.5","0.5","0.5","0.5","0.5","0.5","0.5","0.5","0.5","0.5","0.5","0.5","0.5","0.5","0.5","0.5","0.5","0.5","0.5","0.5","","","","","","","","","","","","","","","","","","","","","","","","","","","","","","","","","","","","","","","","",NA,NA,NA,NA,NA,1167,NA,0,0,2500,0,2500,"sol-ichart-v1-processed","./","V1","yes","OK","child",80,"car","none","known_sign",24,"include","> 26.5 Months","C_T","1",2,4,1167,2,34,1167,2,34,0.736111111111111,TRUE,TRUE,TRUE
