"Sub.Num"	"stimuli"	"Months"	"Sex"	"Order"	"Tr.Num"	"Prescreen.Notes"	"L.image"	"C.Image"	"R.image"	"Target.Side"	"Target.Image"	"Condition"	"Response"	"First.Shift.Gap"	"RT"	"CritOnSet"	"CritOffSet"	"0"	"33"	"67"	"100"	"133"	"167"	"200"	"233"	"267"	"300"	"333"	"367"	"400"	"433"	"467"	"500"	"533"	"567"	"600"	"633"	"667"	"700"	"733"	"767"	"800"	"833"	"867"	"900"	"933"	"967"	"1000"	"1033"	"1067"	"1100"	"1133"	"1167"	"1200"	"1233"	"1267"	"1300"	"1333"	"1367"	"1400"	"1433"	"1467"	"1500"	"1533"	"1567"	"1600"	"1633"	"1667"	"1700"	"1733"	"1767"	"1800"	"1833"	"1867"	"1900"	"1933"	"1967"	"2000"	"2033"	"2067"	"2100"	"2133"	"2167"	"2200"	"2233"	"2267"	"2300"	"2333"	"2367"	"2400"	"2433"	"2467"	"2500"	"2533"	"2567"	"2600"	"2633"	"2667"	"2700"	"2733"	"2767"	"2800"	"2833"	"2867"	"2900"	"2933"	"2967"	"3000"	"3033"	"3067"	"3100"	"3133"	"3167"	"3200"	"3233"	"3267"	"3300"	"3333"	"3367"	"3400"	"3433"	"3467"	"3500"	"3533"	"3567"	"3600"	"3633"	"3667"	"3700"	"3733"	"3767"	"3800"	"3833"	"3867"	"3900"	"3933"	"3967"	"4000"	"4033"	"4067"	"4100"	"4133"	"4167"	"4200"	"4233"	"4267"	"4300"	"4333"	"4367"	"4400"	"4433"	"4467"	"4500"	"4533"	"4567"	"4600"	"4633"	"4667"	"4700"	"4733"	"4767"	"4800"	"4833"	"4867"	"4900"	"4933"	"4967"	"5000"	"Block"	"Offset"	"StartWindowRT"	"EndWindowRT"	"StartWindowAcc"	"EndWindowAcc"	"StudyName"	"Directory"	"include"	"reason_excluded"	"age_code"	"peek_data"	"cdi_data"	"trial_types"	"age_group"	"longestLook"	"longestGap"	"Gap"	"longestGapPosition"	"firstGap"	"durationLongestLook"	"StartlongestLook_T"	"NumberOfShifts"	"FirstFixation"	"Accuracy"
"30004"	"V1"	349	"F"	"sol-inc-1"	11	""	"cookie3.pct"	""	"juice3.pct"	"r"	"juice3.pct"	"Vanilla"	"D"	2	967	2330	6000	"0.5"	"0.5"	"0.5"	"0.5"	"0.5"	"0.5"	"0.5"	"0.5"	"0.5"	"0.5"	"0.5"	"0.5"	"0.5"	"0.5"	"0.5"	"0.5"	"0.5"	"0.5"	"0.5"	"0.5"	"0.5"	"0.5"	"0.5"	"0.5"	"0.5"	"0.5"	"0.5"	"0.5"	"0.5"	"."	"."	"1"	"1"	"1"	"1"	"1"	"1"	"1"	"1"	"1"	"1"	"1"	"1"	"1"	"1"	"1"	"1"	"1"	"1"	"1"	"1"	"1"	"1"	"1"	"1"	"1"	"1"	"1"	"1"	"1"	"1"	"1"	"1"	"1"	"1"	"1"	"1"	"1"	"1"	"1"	"1"	"1"	"1"	"1"	"1"	"1"	"1"	"1"	"1"	"1"	"1"	"1"	"1"	"1"	"1"	"1"	"1"	"1"	"1"	"1"	"1"	"1"	"1"	"1"	"1"	"1"	"1"	""	""	""	""	""	""	""	""	""	""	""	""	""	""	""	""	""	""	""	""	""	""	""	""	""	""	""	""	""	""	""	""	""	""	""	""	""	""	""	""	""	""	""	""	""	""	""	""	""	""	NA	NA	NA	967	NA	0	0	5000	0	5000	"sol-ichart-vanilla1-n41"	"./"	"yes"	NA	"adult"	"yes"	"no"	"C-T"	"Adults"	"1"	2	2	967	2	66	967	1	66	10.9114583333333
"30004"	"V1"	349	"F"	"sol-inc-1"	13	""	"cookie1.pct"	""	"juice1.pct"	"l"	"cookie1.pct"	"Vanilla"	"D"	2	933	2330	6000	"0.5"	"0.5"	"0.5"	"0.5"	"0.5"	"0.5"	"0.5"	"0.5"	"0.5"	"0.5"	"0.5"	"0.5"	"0.5"	"0.5"	"0.5"	"0.5"	"0.5"	"0.5"	"0.5"	"0.5"	"0.5"	"0.5"	"0.5"	"0.5"	"0.5"	"0.5"	"0.5"	"0.5"	"."	"."	"1"	"1"	"1"	"1"	"1"	"1"	"1"	"1"	"1"	"1"	"1"	"1"	"1"	"1"	"1"	"1"	"1"	"1"	"1"	"1"	"1"	"1"	"1"	"1"	"1"	"1"	"1"	"1"	"1"	"1"	"1"	"1"	"1"	"1"	"1"	"1"	"1"	"."	"."	"."	"0.5"	"0.5"	"0.5"	"0.5"	"0.5"	"0.5"	"0.5"	"0.5"	"0.5"	"0.5"	"0.5"	"0.5"	"0.5"	"0.5"	"0.5"	"0.5"	"0.5"	"."	"."	"1"	"1"	"1"	"1"	"1"	"1"	"1"	"1"	"1"	"1"	"1"	"1"	"1"	"1"	"1"	"1"	"1"	"1"	"1"	"1"	"1"	"1"	"1"	"1"	"1"	"1"	"1"	"1"	"1"	"1"	"1"	"."	"."	"."	"."	"."	""	""	""	""	""	""	""	""	""	""	""	""	""	""	""	""	""	""	""	""	""	""	NA	NA	NA	933	NA	0	0	5000	0	5000	"sol-ichart-vanilla1-n41"	"./"	"yes"	NA	"adult"	"yes"	"no"	"C-T"	"Adults"	"1"	5	12	2800	2	37	933	3	37	8.9780701754386
"30004"	"V1"	349	"F"	"sol-inc-1"	14	""	"cookie1.pct"	""	"juice1.pct"	"r"	"juice1.pct"	"Vanilla"	"D"	4	933	2165	6000	"0.5"	"0.5"	"0.5"	"0.5"	"0.5"	"0.5"	"0.5"	"0.5"	"0.5"	"0.5"	"0.5"	"0.5"	"0.5"	"0.5"	"0.5"	"0.5"	"0.5"	"0.5"	"0.5"	"0.5"	"0.5"	"0.5"	"0.5"	"0.5"	"0.5"	"0.5"	"0.5"	"0.5"	"."	"."	"."	"."	"1"	"1"	"1"	"1"	"1"	"1"	"1"	"1"	"1"	"1"	"1"	"1"	"1"	"1"	"1"	"1"	"1"	"1"	"1"	"1"	"1"	"1"	"1"	"1"	"1"	"1"	"1"	"1"	"1"	"1"	"1"	"1"	"1"	"1"	"1"	"1"	"1"	"1"	"1"	"1"	"1"	"1"	"1"	"."	"."	"0.5"	"0.5"	"0.5"	"0.5"	"0.5"	"0.5"	"0.5"	"0.5"	"0.5"	"0.5"	"0.5"	"0.5"	"0.5"	"0.5"	"0.5"	"0.5"	"0.5"	"0.5"	"0.5"	"0.5"	"0.5"	"0.5"	"0.5"	"0.5"	"0.5"	"0.5"	"0.5"	"0.5"	"0.5"	"0.5"	"0.5"	"0.5"	"0.5"	"0.5"	""	""	""	""	""	""	""	""	""	""	""	""	""	""	""	""	""	""	""	""	""	""	""	""	""	""	""	""	""	""	""	""	""	""	""	""	NA	NA	NA	933	NA	0	0	5000	0	5000	"sol-ichart-vanilla1-n41"	"./"	"yes"	NA	"adult"	"yes"	"no"	"C-T"	"Adults"	"1"	4	6	933	4	43	933	2	43	9.5
"30004"	"V1"	349	"F"	"sol-inc-1"	15	""	"bluecup.pct"	""	"redsockL.pct"	"l"	"bluecup.pct"	"Vanilla"	"D"	3	1933	3330	6000	"0.5"	"0.5"	"0.5"	"0.5"	"0.5"	"0.5"	"0.5"	"0.5"	"0.5"	"0.5"	"0.5"	"0.5"	"0.5"	"0.5"	"0.5"	"0.5"	"0.5"	"0.5"	"0.5"	"0.5"	"0.5"	"0.5"	"0.5"	"0.5"	"0.5"	"0.5"	"0.5"	"0.5"	"0.5"	"0.5"	"0.5"	"0.5"	"0.5"	"0.5"	"0.5"	"0.5"	"0.5"	"0.5"	"0.5"	"0.5"	"0.5"	"0.5"	"0.5"	"0.5"	"0.5"	"0.5"	"0.5"	"0.5"	"0.5"	"0.5"	"0.5"	"0.5"	"0.5"	"0.5"	"0.5"	"0.5"	"0.5"	"0.5"	"."	"."	"."	"1"	"1"	"1"	"1"	"1"	"1"	"1"	"1"	"1"	"1"	"1"	"1"	"1"	"1"	"1"	"1"	"1"	"1"	"."	"."	"0.5"	"0.5"	"0.5"	"0.5"	"0.5"	"0.5"	"0.5"	"0.5"	"0.5"	"0.5"	"0.5"	"0.5"	"0.5"	"0.5"	"0.5"	"0.5"	"0.5"	"0.5"	"0.5"	"0.5"	"0.5"	"0.5"	"0.5"	"0.5"	"0.5"	"0.5"	"0.5"	"0.5"	"0.5"	"0.5"	"0.5"	"0.5"	"0.5"	"0.5"	"0.5"	"0.5"	"0.5"	"0.5"	"0.5"	"0.5"	"0.5"	"0.5"	"0.5"	"0.5"	""	""	""	""	""	""	""	""	""	""	""	""	""	""	""	""	""	""	""	""	""	""	NA	NA	NA	1933	NA	0	0	5000	0	5000	"sol-ichart-vanilla1-n41"	"./"	"yes"	NA	"adult"	"yes"	"no"	"C-T"	"Adults"	"1"	3	5	1933	3	18	1933	2	18	16.5454545454545
"30004"	"V1"	349	"F"	"sol-inc-1"	12	""	"redball.pct"	""	"blueshoeL.pct"	"l"	"redball.pct"	"Vanilla"	"D"	4	1033	3033	6000	"0.5"	"0.5"	"0.5"	"0.5"	"0.5"	"0.5"	"0.5"	"0.5"	"0.5"	"0.5"	"0.5"	"0.5"	"0.5"	"0.5"	"0.5"	"0.5"	"0.5"	"0.5"	"0.5"	"0.5"	"0.5"	"0.5"	"0.5"	"0.5"	"0.5"	"0.5"	"0.5"	"0.5"	"0.5"	"0.5"	"0.5"	"."	"."	"."	"."	"1"	"1"	"1"	"1"	"1"	"1"	"1"	"1"	"1"	"1"	"1"	"1"	"1"	"1"	"1"	"1"	"1"	"1"	"1"	"1"	"1"	"1"	"1"	"1"	"1"	"1"	"1"	"1"	"1"	"1"	"1"	"1"	"1"	"1"	"1"	"1"	"1"	"1"	"1"	"1"	"1"	"1"	"."	"."	"0.5"	"0.5"	"0.5"	"0.5"	"0.5"	"0.5"	"0.5"	"0.5"	"0.5"	"0.5"	"0.5"	"0.5"	"0.5"	"0.5"	"0.5"	"0.5"	"0.5"	"0.5"	"0.5"	"0.5"	"0.5"	"0.5"	"0.5"	"0.5"	"0.5"	"0.5"	"0.5"	"0.5"	"0.5"	"0.5"	"0.5"	"0.5"	"0.5"	"0.5"	"0.5"	"0.5"	"0.5"	"0.5"	"0.5"	"0.5"	"0.5"	"0.5"	"0.5"	"0.5"	"0.5"	"0.5"	"0.5"	"0.5"	"0.5"	"0.5"	"0.5"	"0.5"	"0.5"	"0.5"	""	""	""	""	""	""	""	""	""	""	""	""	""	""	NA	NA	NA	1033	NA	0	0	5000	0	5000	"sol-ichart-vanilla1-n41"	"./"	"yes"	NA	"adult"	"yes"	"no"	"C-T"	"Adults"	"1"	4	6	1033	4	42	1033	2	42	8.73046875
"30004"	"V1"	349	"F"	"sol-inc-1"	17	""	"juice2.pct"	""	"cookie2.pct"	"r"	"cookie2.pct"	"Vanilla"	"D"	2	4133	2429	6000	"0.5"	"0.5"	"0.5"	"0.5"	"0.5"	"0.5"	"0.5"	"0.5"	"0.5"	"0.5"	"0.5"	"0.5"	"0.5"	"0.5"	"0.5"	"0.5"	"0.5"	"0.5"	"0.5"	"0.5"	"0.5"	"0.5"	"0.5"	"0.5"	"0.5"	"0.5"	"0.5"	"0.5"	"0.5"	"0.5"	"0.5"	"0.5"	"0.5"	"0.5"	"0.5"	"0.5"	"0.5"	"0.5"	"0.5"	"0.5"	"0.5"	"0.5"	"0.5"	"0.5"	"0.5"	"0.5"	"0.5"	"0.5"	"0.5"	"0.5"	"0.5"	"0.5"	"0.5"	"0.5"	"0.5"	"0.5"	"0.5"	"0.5"	"0.5"	"0.5"	"0.5"	"0.5"	"0.5"	"0.5"	"0.5"	"0.5"	"0.5"	"0.5"	"0.5"	"0.5"	"0.5"	"0.5"	"0.5"	"0.5"	"0.5"	"0.5"	"0.5"	"0.5"	"0.5"	"0.5"	"0.5"	"0.5"	"0.5"	"0.5"	"0.5"	"0.5"	"0.5"	"0.5"	"0.5"	"0.5"	"0.5"	"0.5"	"0.5"	"0.5"	"0.5"	"0.5"	"0.5"	"0.5"	"0.5"	"0.5"	"0.5"	"0.5"	"0.5"	"0.5"	"0.5"	"0.5"	"0.5"	"0.5"	"0.5"	"0.5"	"0.5"	"0.5"	"0.5"	"0.5"	"0.5"	"0.5"	"0.5"	"0.5"	"0.5"	"0.5"	"0.5"	"0.5"	"0.5"	"0.5"	"."	"."	"1"	"1"	"1"	"1"	"1"	"1"	"1"	"1"	"1"	"1"	"1"	"1"	"1"	"1"	"1"	"1"	"1"	"1"	""	""	""	NA	NA	NA	4133	NA	0	0	5000	0	5000	"sol-ichart-vanilla1-n41"	"./"	"yes"	NA	"adult"	"yes"	"no"	"no-shift"	"Adults"	"1"	2	2	4133	2	18	4133	1	18	29.4615384615385
"30004"	"V1"	349	"F"	"sol-inc-1"	18	""	"redshoeR.pct"	""	"redball.pct"	"l"	"redshoeR.pct"	"Vanilla"	"D"	NA	NA	3231	6000	"0.5"	"0.5"	"0.5"	"0.5"	"0.5"	"0.5"	"0.5"	"0.5"	"0.5"	"0.5"	"0.5"	"0.5"	"0.5"	"0.5"	"0.5"	"0.5"	"0.5"	"0.5"	"0.5"	"0.5"	"0.5"	"0.5"	"0.5"	"0.5"	"0.5"	"0.5"	"0.5"	"0.5"	"0.5"	"0.5"	"0.5"	"0.5"	"0.5"	"0.5"	"0.5"	"0.5"	"0.5"	"0.5"	"0.5"	"0.5"	"0.5"	"0.5"	"0.5"	"0.5"	"0.5"	"0.5"	"0.5"	"0.5"	"0.5"	"0.5"	"0.5"	"0.5"	"0.5"	"0.5"	"0.5"	"0.5"	"0.5"	"0.5"	"0.5"	"0.5"	"0.5"	"0.5"	"0.5"	"0.5"	"0.5"	"0.5"	"0.5"	"0.5"	"0.5"	"0.5"	"0.5"	"0.5"	"0.5"	"0.5"	"0.5"	"0.5"	"0.5"	"0.5"	"0.5"	"0.5"	"0.5"	"0.5"	"0.5"	"0.5"	"0.5"	"0.5"	"0.5"	"0.5"	"0.5"	"0.5"	"0.5"	"0.5"	"0.5"	"0.5"	"0.5"	"0.5"	"0.5"	"0.5"	"0.5"	"0.5"	"0.5"	"0.5"	"0.5"	"0.5"	"0.5"	"0.5"	"0.5"	"0.5"	"0.5"	"0.5"	"0.5"	""	""	""	""	""	""	""	""	""	""	""	""	""	""	""	""	""	""	""	""	""	""	""	""	""	""	""	""	""	""	""	""	""	""	""	""	NA	NA	NA	NA	NA	0	0	5000	0	5000	"sol-ichart-vanilla1-n41"	"./"	"yes"	NA	"adult"	"yes"	"no"	"no-shift"	"Adults"	"1"	0	0	NA	NA	0	NA	0	0	0.5
"30004"	"V1"	349	"F"	"sol-inc-1"	19	""	"birdy3R.pct"	""	"kitty2L.pct"	"r"	"kitty2L.pct"	"Vanilla"	"D"	4	567	2297	6000	"0.5"	"0.5"	"0.5"	"0.5"	"0.5"	"0.5"	"0.5"	"0.5"	"0.5"	"0.5"	"0.5"	"0.5"	"0.5"	"0.5"	"0.5"	"0.5"	"0.5"	"."	"."	"."	"."	"1"	"1"	"1"	"1"	"1"	"1"	"1"	"1"	"1"	"1"	"1"	"1"	"1"	"1"	"1"	"1"	"1"	"1"	"1"	"1"	"1"	"1"	"1"	"1"	"1"	"1"	"1"	"1"	"1"	"1"	"1"	"1"	"1"	"1"	"1"	"1"	"1"	"1"	"1"	"1"	"1"	"1"	"1"	"1"	"1"	"1"	"1"	"1"	"1"	"."	"."	"0.5"	"0.5"	"0.5"	"0.5"	"0.5"	"0.5"	"0.5"	"0.5"	"0.5"	"0.5"	"0.5"	"0.5"	"0.5"	"0.5"	"0.5"	"0.5"	"0.5"	"0.5"	"0.5"	"0.5"	"0.5"	"0.5"	"0.5"	"0.5"	"0.5"	"0.5"	"0.5"	"0.5"	"0.5"	"0.5"	"0.5"	"0.5"	"0.5"	"0.5"	"0.5"	"0.5"	"0.5"	"0.5"	"0.5"	"0.5"	"0.5"	"0.5"	"0.5"	"0.5"	"0.5"	"0.5"	"0.5"	"0.5"	"0.5"	"0.5"	"0.5"	"0.5"	"0.5"	"0.5"	"0.5"	"0.5"	"0.5"	"0.5"	"0.5"	"0.5"	"0.5"	"0.5"	""	""	""	""	""	""	""	""	""	""	""	""	""	NA	NA	NA	567	NA	0	0	5000	0	5000	"sol-ichart-vanilla1-n41"	"./"	"yes"	NA	"adult"	"yes"	"no"	"C-T"	"Adults"	"1"	4	6	567	4	49	567	2	49	5.08139534883721
"30004"	"V1"	349	"F"	"sol-inc-1"	16	""	"juice1.pct"	""	"cookie1.pct"	"l"	"juice1.pct"	"Vanilla"	"D"	2	2367	2330	6000	"0.5"	"0.5"	"0.5"	"0.5"	"0.5"	"0.5"	"0.5"	"0.5"	"0.5"	"0.5"	"0.5"	"0.5"	"0.5"	"0.5"	"0.5"	"0.5"	"0.5"	"0.5"	"0.5"	"0.5"	"0.5"	"0.5"	"0.5"	"0.5"	"0.5"	"0.5"	"0.5"	"0.5"	"0.5"	"0.5"	"0.5"	"0.5"	"0.5"	"0.5"	"0.5"	"0.5"	"0.5"	"0.5"	"0.5"	"0.5"	"0.5"	"0.5"	"0.5"	"0.5"	"0.5"	"0.5"	"0.5"	"0.5"	"0.5"	"0.5"	"0.5"	"0.5"	"0.5"	"0.5"	"0.5"	"0.5"	"0.5"	"0.5"	"0.5"	"0.5"	"0.5"	"0.5"	"0.5"	"0.5"	"0.5"	"0.5"	"0.5"	"0.5"	"0.5"	"0.5"	"0.5"	"."	"."	"1"	"1"	"1"	"1"	"1"	"1"	"1"	"1"	"1"	"1"	"1"	"1"	"1"	"1"	"1"	"1"	"1"	"1"	"1"	"1"	"1"	"1"	"1"	"1"	"1"	"1"	""	""	""	""	""	""	""	""	""	""	""	""	""	""	""	""	""	""	""	""	""	""	""	""	""	""	""	""	""	""	""	""	""	""	""	""	""	""	""	""	""	""	""	""	""	""	""	""	NA	NA	NA	2367	NA	0	0	5000	0	5000	"sol-ichart-vanilla1-n41"	"./"	"yes"	NA	"adult"	"yes"	"no"	"C-T"	"Adults"	"1"	2	2	2367	2	26	2367	1	26	24.780612244898
"30004"	"V1"	349	"F"	"sol-inc-1"	22	""	"bluecup.pct"	""	"bluesockL.pct"	"r"	"bluesockL.pct"	"Vanilla"	"D"	3	1833	3561	6000	"0.5"	"0.5"	"0.5"	"0.5"	"0.5"	"0.5"	"0.5"	"0.5"	"0.5"	"0.5"	"0.5"	"0.5"	"0.5"	"0.5"	"0.5"	"0.5"	"0.5"	"0.5"	"0.5"	"0.5"	"0.5"	"0.5"	"0.5"	"0.5"	"0.5"	"0.5"	"0.5"	"0.5"	"0.5"	"0.5"	"0.5"	"0.5"	"0.5"	"0.5"	"0.5"	"0.5"	"0.5"	"0.5"	"0.5"	"0.5"	"0.5"	"0.5"	"0.5"	"0.5"	"0.5"	"0.5"	"0.5"	"0.5"	"0.5"	"0.5"	"0.5"	"0.5"	"0.5"	"0.5"	"0.5"	"."	"."	"."	"1"	"1"	"1"	"1"	"1"	"1"	"1"	"1"	"1"	"1"	"1"	"1"	"1"	"1"	"."	"0.5"	"0.5"	"0.5"	"0.5"	"0.5"	"0.5"	"0.5"	"0.5"	"0.5"	"0.5"	"0.5"	"0.5"	"0.5"	"0.5"	"0.5"	"0.5"	"0.5"	"0.5"	"0.5"	"0.5"	"0.5"	"0.5"	"0.5"	"0.5"	"0.5"	"0.5"	"0.5"	"0.5"	"0.5"	"0.5"	"0.5"	"0.5"	"0.5"	"0.5"	"0.5"	"0.5"	"0.5"	"0.5"	"."	"1"	"1"	"1"	"1"	"1"	"1"	"1"	"1"	"1"	"1"	"1"	"1"	""	""	""	""	""	""	""	""	""	""	""	""	""	""	""	""	""	""	""	""	""	""	""	NA	NA	NA	1833	NA	0	0	5000	0	5000	"sol-ichart-vanilla1-n41"	"./"	"yes"	NA	"adult"	"yes"	"no"	"C-T"	"Adults"	"1"	3	5	1833	3	14	1833	2	14	15.8791666666667
"30004"	"V1"	349	"F"	"sol-inc-1"	23	""	"teddy2.pct"	""	"doll2L.pct"	"l"	"teddy2.pct"	"Vanilla"	"D"	3	767	2099	6000	"0.5"	"0.5"	"0.5"	"0.5"	"0.5"	"0.5"	"0.5"	"0.5"	"0.5"	"0.5"	"0.5"	"0.5"	"0.5"	"0.5"	"0.5"	"0.5"	"0.5"	"0.5"	"0.5"	"0.5"	"0.5"	"0.5"	"0.5"	"."	"."	"."	"1"	"1"	"1"	"1"	"1"	"1"	"1"	"1"	"1"	"1"	"1"	"1"	"1"	"1"	"1"	"1"	"1"	"1"	"1"	"1"	"1"	"1"	"1"	"1"	"1"	"1"	"1"	"1"	"1"	"."	"0.5"	"0.5"	"0.5"	"0.5"	"0.5"	"0.5"	"0.5"	"0.5"	"0.5"	"0.5"	"0.5"	"0.5"	"0.5"	"0.5"	"0.5"	"0.5"	"0.5"	"0.5"	"0.5"	"0.5"	"0.5"	"0.5"	"0.5"	"0.5"	"0.5"	"0.5"	"0.5"	"0.5"	"0.5"	"0.5"	"0.5"	"0.5"	"0.5"	"0.5"	"0.5"	"0.5"	"0.5"	"0.5"	"0.5"	"0.5"	"0.5"	"0.5"	"0.5"	"0.5"	"0.5"	"0.5"	"0.5"	"0.5"	"0.5"	"0.5"	"0.5"	"0.5"	"0.5"	"0.5"	"0.5"	"0.5"	"0.5"	"0.5"	"0.5"	"0.5"	"0.5"	"0.5"	"0.5"	"0.5"	"0.5"	"0.5"	"0.5"	""	""	""	""	""	""	""	""	""	""	""	""	""	""	""	""	""	""	""	""	""	""	""	""	NA	NA	NA	767	NA	0	0	5000	0	5000	"sol-ichart-vanilla1-n41"	"./"	"yes"	NA	"adult"	"yes"	"no"	"C-T"	"Adults"	"1"	3	4	767	3	29	767	2	29	7.00833333333333
"30004"	"V1"	349	"F"	"sol-inc-1"	24	""	"juice1.pct"	""	"cookie1.pct"	"l"	"juice1.pct"	"Vanilla"	"D"	3	1200	2165	6000	"0.5"	"0.5"	"0.5"	"0.5"	"0.5"	"0.5"	"0.5"	"0.5"	"0.5"	"0.5"	"0.5"	"0.5"	"0.5"	"0.5"	"0.5"	"0.5"	"0.5"	"0.5"	"0.5"	"0.5"	"0.5"	"0.5"	"0.5"	"0.5"	"0.5"	"0.5"	"0.5"	"0.5"	"0.5"	"0.5"	"0.5"	"0.5"	"0.5"	"0.5"	"0.5"	"0.5"	"."	"."	"."	"1"	"1"	"1"	"1"	"1"	"1"	"1"	"1"	"1"	"1"	"1"	"1"	"1"	"1"	"1"	"1"	"1"	"1"	"1"	"1"	"1"	"1"	"1"	"1"	"1"	"1"	"1"	"1"	"1"	"1"	"1"	"1"	"1"	"1"	"1"	"1"	"1"	"1"	"."	"."	"."	"0.5"	"0.5"	"0.5"	"0.5"	"0.5"	"0.5"	"0.5"	"0.5"	"0.5"	"0.5"	"0.5"	"0.5"	"0.5"	"0.5"	"0.5"	"0.5"	"0.5"	"0.5"	"0.5"	"0.5"	"0.5"	"0.5"	"0.5"	"0.5"	"0.5"	"0.5"	"0.5"	"0.5"	""	""	""	""	""	""	""	""	""	""	""	""	""	""	""	""	""	""	""	""	""	""	""	""	""	""	""	""	""	""	""	""	""	""	""	""	""	""	""	NA	NA	NA	1200	NA	0	0	5000	0	5000	"sol-ichart-vanilla1-n41"	"./"	"yes"	NA	"adult"	"yes"	"no"	"C-T"	"Adults"	"1"	3	6	1200	3	38	1200	2	38	12.3300970873786
"30004"	"V1"	349	"F"	"sol-inc-1"	25	""	"birdy3R.pct"	""	"kitty2L.pct"	"l"	"birdy3R.pct"	"Vanilla"	"D"	3	1000	1957	6000	"0.5"	"0.5"	"0.5"	"0.5"	"0.5"	"0.5"	"0.5"	"0.5"	"0.5"	"0.5"	"0.5"	"0.5"	"0.5"	"0.5"	"0.5"	"0.5"	"0.5"	"0.5"	"0.5"	"0.5"	"0.5"	"0.5"	"0.5"	"0.5"	"0.5"	"0.5"	"0.5"	"0.5"	"0.5"	"0.5"	"."	"."	"."	"1"	"1"	"1"	"1"	"1"	"1"	"1"	"1"	"1"	"1"	"1"	"1"	"1"	"1"	"1"	"1"	"1"	"1"	"1"	"1"	"1"	"1"	"1"	"1"	"1"	"1"	"1"	"1"	"1"	"1"	"1"	"1"	"1"	"1"	"1"	"1"	"1"	"1"	"1"	"."	"."	"0.5"	"0.5"	"0.5"	"0.5"	"0.5"	"0.5"	"0.5"	"0.5"	"0.5"	"0.5"	"0.5"	"0.5"	"0.5"	"0.5"	"0.5"	"0.5"	"0.5"	"0.5"	"0.5"	"0.5"	"0.5"	""	""	""	""	""	""	""	""	""	""	""	""	""	""	""	""	""	""	""	""	""	""	""	""	""	""	""	""	""	""	""	""	""	""	""	""	""	""	""	""	""	""	""	""	""	""	""	""	""	""	""	""	NA	NA	NA	1000	NA	0	0	5000	0	5000	"sol-ichart-vanilla1-n41"	"./"	"yes"	NA	"adult"	"yes"	"no"	"C-T"	"Adults"	"1"	3	5	1000	3	39	1000	2	39	11.6978021978022
"30004"	"V1"	349	"F"	"sol-inc-1"	26	""	"bluesockR.pct"	""	"redcup.pct"	"r"	"redcup.pct"	"Vanilla"	"D"	2	1233	3594	6000	"0.5"	"0.5"	"0.5"	"0.5"	"0.5"	"0.5"	"0.5"	"0.5"	"0.5"	"0.5"	"0.5"	"0.5"	"0.5"	"0.5"	"0.5"	"0.5"	"0.5"	"0.5"	"0.5"	"0.5"	"0.5"	"0.5"	"0.5"	"0.5"	"0.5"	"0.5"	"0.5"	"0.5"	"0.5"	"0.5"	"0.5"	"0.5"	"0.5"	"0.5"	"0.5"	"0.5"	"0.5"	"."	"."	"1"	"1"	"1"	"1"	"1"	"1"	"1"	"1"	"1"	"1"	"1"	"1"	"1"	"1"	"1"	"1"	"1"	"1"	"1"	"1"	"1"	"1"	"1"	"1"	"1"	"1"	"1"	"1"	"1"	"1"	"1"	"1"	"1"	"1"	"1"	"1"	"1"	"1"	"1"	"1"	"1"	"1"	"1"	"1"	"."	"."	"0.5"	"0.5"	"0.5"	"0.5"	"0.5"	"0.5"	"0.5"	"0.5"	"0.5"	"0.5"	"0.5"	"0.5"	"0.5"	"0.5"	"0.5"	"0.5"	"0.5"	"0.5"	"0.5"	"0.5"	"0.5"	"0.5"	"0.5"	"0.5"	"0.5"	"0.5"	"0.5"	"0.5"	"0.5"	"0.5"	"0.5"	"0.5"	"0.5"	"0.5"	"0.5"	"0.5"	"0.5"	"0.5"	"0.5"	"0.5"	"0.5"	"0.5"	"0.5"	"0.5"	"0.5"	"0.5"	"0.5"	"0.5"	"0.5"	"0.5"	"0.5"	"0.5"	"0.5"	"0.5"	"0.5"	"0.5"	"0.5"	"0.5"	"0.5"	"0.5"	"0.5"	"0.5"	"0.5"	"0.5"	NA	1233	NA	0	0	5000	0	5000	"sol-ichart-vanilla1-n41"	"./"	"yes"	NA	"adult"	"yes"	"no"	"C-T"	"Adults"	"1"	2	4	1233	2	44	1233	2	44	9.09246575342466
"30004"	"V1"	349	"F"	"sol-inc-1"	27	""	"juice2.pct"	""	"cookie2.pct"	"r"	"cookie2.pct"	"Vanilla"	"D"	4	800	2330	6000	"0.5"	"0.5"	"0.5"	"0.5"	"0.5"	"0.5"	"0.5"	"0.5"	"0.5"	"0.5"	"0.5"	"0.5"	"0.5"	"0.5"	"0.5"	"0.5"	"0.5"	"0.5"	"0.5"	"0.5"	"0.5"	"0.5"	"0.5"	"0.5"	"."	"."	"."	"."	"1"	"1"	"1"	"1"	"1"	"1"	"1"	"1"	"1"	"1"	"1"	"1"	"1"	"1"	"1"	"1"	"1"	"."	"."	"."	"."	"0.5"	"0.5"	"0.5"	"0.5"	"0.5"	"0.5"	"0.5"	"0.5"	"0.5"	"0.5"	"0.5"	"0.5"	"0.5"	"0.5"	"0.5"	"0.5"	"0.5"	"0.5"	"0.5"	"0.5"	"0.5"	"0.5"	"0.5"	"0.5"	"0.5"	"0.5"	"0.5"	"0.5"	"0.5"	"0.5"	"0.5"	"0.5"	"0.5"	"0.5"	"0.5"	"0.5"	"0.5"	"0.5"	"0.5"	"0.5"	"0.5"	"0.5"	"0.5"	"0.5"	"0.5"	"0.5"	"0.5"	"0.5"	"0.5"	"0.5"	"0.5"	"0.5"	"0.5"	"0.5"	"0.5"	"0.5"	"0.5"	"0.5"	"0.5"	"0.5"	"0.5"	"0.5"	"0.5"	"0.5"	"0.5"	"0.5"	"0.5"	""	""	""	""	""	""	""	""	""	""	""	""	""	""	""	""	""	""	""	""	""	""	""	""	""	""	""	""	""	""	""	NA	NA	NA	800	NA	0	0	5000	0	5000	"sol-ichart-vanilla1-n41"	"./"	"yes"	NA	"adult"	"yes"	"no"	"C-T"	"Adults"	"1"	4	8	800	4	17	800	2	17	7.91284403669725
"30004"	"V1"	349	"F"	"sol-inc-1"	28	""	"doll1L.pct"	""	"teddy1.pct"	"l"	"doll1L.pct"	"Vanilla"	"D"	2	1000	1924	6000	"0.5"	"0.5"	"0.5"	"0.5"	"0.5"	"0.5"	"0.5"	"0.5"	"0.5"	"0.5"	"0.5"	"0.5"	"0.5"	"0.5"	"0.5"	"0.5"	"0.5"	"0.5"	"0.5"	"0.5"	"0.5"	"0.5"	"0.5"	"0.5"	"0.5"	"0.5"	"0.5"	"0.5"	"0.5"	"0.5"	"."	"."	"1"	"1"	"1"	"1"	"1"	"1"	"1"	"1"	"1"	"1"	"1"	"1"	"1"	"1"	"1"	"1"	"1"	"1"	"1"	"1"	"1"	"1"	"1"	"1"	"1"	"1"	"1"	"1"	"1"	"1"	"1"	"1"	"1"	"1"	"1"	"1"	"1"	"1"	"1"	"1"	"1"	"1"	"1"	"1"	"1"	"1"	"1"	"1"	"1"	"1"	"1"	"1"	"1"	"1"	"1"	"1"	"1"	"1"	"1"	"1"	"1"	"1"	"1"	"1"	"1"	"1"	"1"	"1"	"1"	"1"	"1"	"1"	"1"	"1"	"1"	"1"	"1"	"1"	"1"	"1"	"1"	"1"	"1"	"1"	"1"	"1"	"1"	""	""	""	""	""	""	""	""	""	""	""	""	""	""	""	""	""	""	""	""	""	""	""	""	""	""	""	""	NA	NA	NA	1000	NA	0	0	5000	0	5000	"sol-ichart-vanilla1-n41"	"./"	"yes"	NA	"adult"	"yes"	"no"	"C-T"	"Adults"	"1"	2	2	1000	2	87	1000	1	87	9.33898305084746
"30004"	"V1"	349	"F"	"sol-inc-1"	29	""	"bluecup.pct"	""	"bluesockL.pct"	"l"	"bluecup.pct"	"Vanilla"	"D"	2	1867	3330	6000	"0.5"	"0.5"	"0.5"	"0.5"	"0.5"	"0.5"	"0.5"	"0.5"	"0.5"	"0.5"	"0.5"	"0.5"	"0.5"	"0.5"	"0.5"	"0.5"	"0.5"	"0.5"	"0.5"	"0.5"	"0.5"	"0.5"	"0.5"	"0.5"	"0.5"	"0.5"	"0.5"	"0.5"	"0.5"	"0.5"	"0.5"	"0.5"	"0.5"	"0.5"	"0.5"	"0.5"	"0.5"	"0.5"	"0.5"	"0.5"	"0.5"	"0.5"	"0.5"	"0.5"	"0.5"	"0.5"	"0.5"	"0.5"	"0.5"	"0.5"	"0.5"	"0.5"	"0.5"	"0.5"	"0.5"	"0.5"	"."	"."	"1"	"1"	"1"	"1"	"1"	"1"	"1"	"1"	"1"	"1"	"1"	"1"	"1"	"1"	"1"	"1"	"1"	"1"	"1"	"1"	"1"	"1"	"1"	"1"	"1"	"1"	"1"	"1"	"1"	"1"	"1"	"1"	"1"	"1"	"1"	"1"	"1"	"1"	"1"	"1"	"1"	"1"	"1"	"1"	"1"	"1"	"1"	"1"	"1"	"1"	"1"	"1"	"1"	"1"	"1"	"1"	"1"	"1"	"1"	"1"	"1"	"1"	"1"	"1"	"1"	"1"	"1"	"1"	"1"	""	""	""	""	""	""	""	""	""	""	""	""	""	""	""	""	""	""	""	""	NA	NA	NA	1867	NA	0	0	5000	0	5000	"sol-ichart-vanilla1-n41"	"./"	"yes"	NA	"adult"	"yes"	"no"	"C-T"	"Adults"	"1"	2	2	1867	2	69	1867	1	69	15.5873015873016
"30004"	"V1"	349	"F"	"sol-inc-1"	2	""	"teddy1.pct"	""	"doll1L.jpg"	"r"	"doll1L.jpg"	"Vanilla"	"D"	2	1633	2066	6000	"0.5"	"0.5"	"0.5"	"0.5"	"0.5"	"0.5"	"0.5"	"0.5"	"0.5"	"0.5"	"0.5"	"0.5"	"0.5"	"0.5"	"0.5"	"0.5"	"0.5"	"0.5"	"0.5"	"0.5"	"0.5"	"0.5"	"0.5"	"0.5"	"0.5"	"0.5"	"0.5"	"0.5"	"0.5"	"0.5"	"0.5"	"0.5"	"0.5"	"0.5"	"0.5"	"0.5"	"0.5"	"0.5"	"0.5"	"0.5"	"0.5"	"0.5"	"0.5"	"0.5"	"0.5"	"0.5"	"0.5"	"0.5"	"0.5"	"."	"."	"1"	"1"	"1"	"1"	"1"	"1"	"1"	"1"	"1"	"1"	"1"	"1"	"1"	"1"	"1"	"1"	"1"	"1"	"1"	"1"	"1"	"1"	"1"	"1"	"1"	"1"	"1"	"1"	"1"	"1"	"1"	"1"	"1"	"1"	"1"	"1"	"."	"0.5"	"0.5"	"0.5"	"0.5"	"0.5"	"0.5"	"0.5"	"0.5"	"0.5"	"0.5"	"0.5"	"0.5"	"0.5"	"0.5"	"0.5"	"0.5"	"0.5"	"0.5"	"0.5"	"0.5"	"0.5"	"0.5"	"0.5"	""	""	""	""	""	""	""	""	""	""	""	""	""	""	""	""	""	""	""	""	""	""	""	""	""	""	""	""	""	""	""	""	""	""	""	""	NA	NA	NA	1633	NA	0	0	5000	0	5000	"sol-ichart-vanilla1-n41"	"./"	"yes"	NA	"adult"	"yes"	"no"	"C-T"	"Adults"	"1"	2	3	1633	2	36	1633	2	36	15.6422018348624
"30004"	"V1"	349	"F"	"sol-inc-1"	3	""	"bluecup.pct"	""	"redsockL.pct"	"r"	"redsockL.pct"	"Vanilla"	"D"	1	1167	3165	6000	"0.5"	"0.5"	"0.5"	"0.5"	"0.5"	"0.5"	"0.5"	"0.5"	"0.5"	"0.5"	"0.5"	"0.5"	"0.5"	"0.5"	"0.5"	"0.5"	"0.5"	"0.5"	"0.5"	"0.5"	"0.5"	"0.5"	"0.5"	"0.5"	"0.5"	"0.5"	"0.5"	"0.5"	"0.5"	"0.5"	"0.5"	"0.5"	"0.5"	"0.5"	"0.5"	"."	"1"	"1"	"1"	"1"	"1"	"1"	"1"	"1"	"1"	"1"	"1"	"1"	"1"	"1"	"1"	"1"	"1"	"1"	"1"	"1"	"1"	"1"	"1"	"1"	"1"	"1"	"1"	"1"	"1"	"1"	"1"	"1"	"1"	"1"	"1"	"1"	"1"	"1"	"1"	"."	"."	"0.5"	"0.5"	"0.5"	"0.5"	"0.5"	"0.5"	"0.5"	"0.5"	"0.5"	"0.5"	"0.5"	"0.5"	"0.5"	"0.5"	"0.5"	"0.5"	"0.5"	"0.5"	"0.5"	"0.5"	"0.5"	"0.5"	"0.5"	"0.5"	"0.5"	"0.5"	"0.5"	"0.5"	"0.5"	"0.5"	"0.5"	"0.5"	"0.5"	"0.5"	"0.5"	"0.5"	"0.5"	""	""	""	""	""	""	""	""	""	""	""	""	""	""	""	""	""	""	""	""	""	""	""	""	""	""	""	""	""	""	""	""	""	NA	NA	NA	1167	NA	0	0	5000	0	5000	"sol-ichart-vanilla1-n41"	"./"	"yes"	NA	"adult"	"yes"	"no"	"C-T"	"Adults"	"1"	2	3	2500	1	39	1167	2	39	11.0892857142857
"30004"	"V1"	349	"F"	"sol-inc-1"	4	""	"juice1.pct"	""	"cookie1.pct"	"l"	"juice1.pct"	"Vanilla"	"D"	2	700	2165	6000	"0.5"	"0.5"	"0.5"	"0.5"	"0.5"	"0.5"	"0.5"	"0.5"	"0.5"	"0.5"	"0.5"	"0.5"	"0.5"	"0.5"	"0.5"	"0.5"	"0.5"	"0.5"	"0.5"	"0.5"	"0.5"	"."	"."	"1"	"1"	"1"	"1"	"1"	"1"	"1"	"1"	"1"	"1"	"1"	"1"	"1"	"1"	"1"	"1"	"1"	"1"	"1"	"1"	"1"	"1"	"1"	"1"	"1"	"1"	"1"	"1"	"1"	"1"	"1"	"1"	"1"	"1"	"1"	"1"	"1"	"1"	"1"	"1"	"1"	"1"	"1"	"1"	"1"	"1"	"."	"."	"0.5"	"0.5"	"0.5"	"0.5"	"0.5"	"0.5"	"0.5"	"0.5"	"0.5"	"0.5"	"0.5"	"0.5"	"0.5"	"0.5"	"0.5"	"0.5"	"0.5"	"0.5"	"0.5"	"0.5"	"0.5"	"0.5"	"0.5"	"0.5"	"0.5"	"0.5"	"0.5"	"0.5"	"0.5"	"0.5"	"0.5"	"0.5"	"0.5"	"0.5"	"0.5"	"0.5"	"0.5"	"0.5"	"0.5"	""	""	""	""	""	""	""	""	""	""	""	""	""	""	""	""	""	""	""	""	""	""	""	""	""	""	""	""	""	""	""	""	""	""	""	""	""	NA	NA	NA	700	NA	0	0	5000	0	5000	"sol-ichart-vanilla1-n41"	"./"	"yes"	NA	"adult"	"yes"	"no"	"C-T"	"Adults"	"1"	2	4	700	2	46	700	2	46	7.25233644859813
"30004"	"V1"	349	"F"	"sol-inc-1"	5	""	"cookie2.pct"	""	"juice2.pct"	"l"	"cookie2.pct"	"Vanilla"	"D"	5	833	2330	6000	"0.5"	"0.5"	"0.5"	"0.5"	"0.5"	"0.5"	"0.5"	"0.5"	"0.5"	"0.5"	"0.5"	"0.5"	"0.5"	"0.5"	"0.5"	"0.5"	"0.5"	"0.5"	"0.5"	"0.5"	"0.5"	"0.5"	"0.5"	"0.5"	"0.5"	"."	"."	"."	"."	"."	"1"	"1"	"1"	"1"	"1"	"1"	"1"	"1"	"1"	"1"	"1"	"1"	"1"	"1"	"1"	"1"	"1"	"1"	"1"	"1"	"1"	"1"	"1"	"1"	"1"	"1"	"1"	"1"	"1"	"."	"."	"."	"0.5"	"0.5"	"0.5"	"0.5"	"0.5"	"0.5"	"0.5"	"0.5"	"0.5"	"0.5"	"0.5"	"0.5"	"0.5"	"0.5"	"0.5"	"0.5"	"0.5"	"0.5"	"0.5"	"0.5"	"0.5"	"0.5"	"0.5"	"0.5"	"0.5"	"0.5"	"0.5"	"0.5"	"0.5"	"0.5"	"0.5"	"0.5"	"0.5"	"0.5"	"0.5"	"0.5"	"0.5"	"0.5"	"0.5"	"0.5"	"0.5"	"0.5"	"0.5"	"0.5"	"0.5"	"0.5"	"0.5"	"0.5"	"0.5"	"0.5"	"0.5"	"0.5"	"0.5"	"0.5"	"0.5"	""	""	""	""	""	""	""	""	""	""	""	""	""	""	""	""	""	""	""	""	""	""	""	""	""	""	""	""	""	""	NA	NA	NA	833	NA	0	0	5000	0	5000	"sol-ichart-vanilla1-n41"	"./"	"yes"	NA	"adult"	"yes"	"no"	"C-T"	"Adults"	"1"	5	8	833	5	29	833	2	29	8.2
"30004"	"V1"	349	"F"	"sol-inc-1"	6	""	"redsockR.pct"	""	"redcup.pct"	"r"	"redcup.pct"	"Vanilla"	"D"	4	967	3594	6000	"0.5"	"0.5"	"0.5"	"0.5"	"0.5"	"0.5"	"0.5"	"0.5"	"0.5"	"0.5"	"0.5"	"0.5"	"0.5"	"0.5"	"0.5"	"0.5"	"0.5"	"0.5"	"0.5"	"0.5"	"0.5"	"0.5"	"0.5"	"0.5"	"0.5"	"0.5"	"0.5"	"0.5"	"0.5"	"."	"."	"."	"."	"1"	"1"	"1"	"1"	"1"	"1"	"1"	"1"	"1"	"1"	"1"	"1"	"1"	"1"	"1"	"1"	"1"	"1"	"1"	"1"	"1"	"1"	"1"	"1"	"1"	"1"	"1"	"1"	"1"	"1"	"1"	"1"	"."	"."	"."	"."	"."	"."	"0.5"	"0.5"	"0.5"	"0.5"	"0.5"	"0.5"	"0.5"	"0.5"	"0.5"	"0.5"	"0.5"	"0.5"	"0.5"	"0.5"	"0.5"	"0.5"	"0.5"	"0.5"	"0.5"	"0.5"	"0.5"	"0.5"	"0.5"	"0.5"	"0.5"	"0.5"	"0.5"	"0.5"	"0.5"	"0.5"	"0.5"	"0.5"	"0.5"	"0.5"	"0.5"	"0.5"	"0.5"	"0.5"	"0.5"	"0.5"	"0.5"	"0.5"	"0.5"	"0.5"	"0.5"	"0.5"	"0.5"	"0.5"	"0.5"	"0.5"	"0.5"	"0.5"	"0.5"	"0.5"	"0.5"	"0.5"	"0.5"	"0.5"	"0.5"	"0.5"	"0.5"	"0.5"	"0.5"	"0.5"	"0.5"	"0.5"	"0.5"	"0.5"	"0.5"	"0.5"	"0.5"	"0.5"	"0.5"	"0.5"	"0.5"	"0.5"	"0.5"	NA	NA	967	NA	0	0	5000	0	5000	"sol-ichart-vanilla1-n41"	"./"	"yes"	NA	"adult"	"yes"	"no"	"C-T"	"Adults"	"1"	6	10	2167	4	32	967	2	32	7.56834532374101
"30004"	"V1"	349	"F"	"sol-inc-1"	7	""	"cookie2.pct"	""	"juice2.pct"	"l"	"cookie2.pct"	"Vanilla"	"D"	5	700	2429	6000	"0.5"	"0.5"	"0.5"	"0.5"	"0.5"	"0.5"	"0.5"	"0.5"	"0.5"	"0.5"	"0.5"	"0.5"	"0.5"	"0.5"	"0.5"	"0.5"	"0.5"	"0.5"	"0.5"	"0.5"	"0.5"	"."	"."	"."	"."	"."	"1"	"1"	"1"	"1"	"1"	"1"	"1"	"1"	"1"	"1"	"1"	"1"	"1"	"1"	"1"	"1"	"1"	"1"	"1"	"1"	"1"	"1"	"1"	"1"	"1"	"1"	"1"	"1"	"1"	"1"	"1"	"1"	"1"	"1"	"1"	"1"	"1"	"1"	"1"	"1"	"1"	"."	"."	"."	"0.5"	"0.5"	"0.5"	"0.5"	"0.5"	"0.5"	"0.5"	"0.5"	"0.5"	"0.5"	"0.5"	"0.5"	"0.5"	"0.5"	"0.5"	"0.5"	"0.5"	"0.5"	"0.5"	"0.5"	"0.5"	"0.5"	"0.5"	"0.5"	"0.5"	"0.5"	"0.5"	"0.5"	"0.5"	"0.5"	"0.5"	"0.5"	"0.5"	"0.5"	"0.5"	"0.5"	"0.5"	"0.5"	"0.5"	"0.5"	"0.5"	"0.5"	"0.5"	"0.5"	""	""	""	""	""	""	""	""	""	""	""	""	""	""	""	""	""	""	""	""	""	""	""	""	""	""	""	""	""	""	""	""	""	NA	NA	NA	700	NA	0	0	5000	0	5000	"sol-ichart-vanilla1-n41"	"./"	"yes"	NA	"adult"	"yes"	"no"	"C-T"	"Adults"	"1"	5	8	700	5	41	700	2	41	7.22897196261682
"30004"	"V1"	349	"F"	"sol-inc-1"	8	""	"blueball.jpg"	""	"blueshoeL.pct"	"l"	"blueball.jpg"	"Vanilla"	"D"	2	233	3066	6000	"0.5"	"0.5"	"0.5"	"0.5"	"0.5"	"0.5"	"0.5"	"."	"."	"1"	"1"	"1"	"1"	"1"	"1"	"1"	"1"	"1"	"1"	"1"	"1"	"1"	"1"	"1"	"1"	"1"	"1"	"1"	"1"	"1"	"1"	"1"	"1"	"1"	"1"	"1"	"1"	"1"	"1"	"1"	"1"	"1"	"1"	"1"	"."	"."	"."	"."	"0.5"	"0.5"	"0.5"	"0.5"	"0.5"	"0.5"	"0.5"	"0.5"	"0.5"	"0.5"	"0.5"	"0.5"	"0.5"	"0.5"	"0.5"	"0.5"	"0.5"	"0.5"	"0.5"	"0.5"	"0.5"	"0.5"	"0.5"	"0.5"	"0.5"	"0.5"	"0.5"	"0.5"	"0.5"	"0.5"	"0.5"	"0.5"	"0.5"	"0.5"	"0.5"	"0.5"	"0.5"	"0.5"	"0.5"	"0.5"	"0.5"	"0.5"	"0.5"	"0.5"	"0.5"	"0.5"	"0.5"	"0.5"	"0.5"	"0.5"	"0.5"	"0.5"	"0.5"	"0.5"	"0.5"	"0.5"	"0.5"	"0.5"	"0.5"	"0.5"	"0.5"	"0.5"	"0.5"	"0.5"	"0.5"	"0.5"	"0.5"	"0.5"	"0.5"	"0.5"	""	""	""	""	""	""	""	""	""	""	""	""	""	""	""	""	""	""	""	""	""	""	""	""	""	""	""	""	""	NA	NA	NA	233	NA	0	0	5000	0	5000	"sol-ichart-vanilla1-n41"	"./"	"yes"	NA	"adult"	"yes"	"no"	"C-T"	"Adults"	"1"	4	6	1467	2	35	233	2	35	2.71238938053097
"30004"	"V1"	349	"F"	"sol-inc-1"	9	""	"kitty2R.pct"	""	"birdy1L.pct"	"r"	"birdy1L.pct"	"Vanilla"	"D"	5	933	2000	6000	"0.5"	"0.5"	"0.5"	"0.5"	"0.5"	"0.5"	"0.5"	"0.5"	"0.5"	"0.5"	"0.5"	"0.5"	"0.5"	"0.5"	"0.5"	"0.5"	"0.5"	"0.5"	"0.5"	"0.5"	"0.5"	"0.5"	"0.5"	"0.5"	"0.5"	"0.5"	"0.5"	"0.5"	"."	"."	"."	"."	"."	"1"	"1"	"1"	"1"	"1"	"1"	"1"	"1"	"1"	"1"	"1"	"1"	"1"	"1"	"1"	"1"	"1"	"1"	"1"	"1"	"1"	"1"	"1"	"."	"."	"0.5"	"0.5"	"0.5"	"0.5"	"0.5"	"0.5"	"0.5"	"0.5"	"0.5"	"0.5"	"0.5"	"0.5"	"0.5"	"0.5"	"0.5"	"0.5"	"0.5"	"0.5"	"0.5"	"0.5"	"0.5"	"0.5"	"0.5"	"0.5"	"0.5"	"0.5"	"0.5"	"0.5"	"0.5"	"0.5"	"0.5"	"0.5"	"0.5"	"0.5"	"0.5"	"0.5"	"0.5"	"0.5"	""	""	""	""	""	""	""	""	""	""	""	""	""	""	""	""	""	""	""	""	""	""	""	""	""	""	""	""	""	""	""	""	""	""	""	""	""	""	""	""	""	""	""	""	""	""	""	""	""	""	""	NA	NA	NA	933	NA	0	0	5000	0	5000	"sol-ichart-vanilla1-n41"	"./"	"yes"	NA	"adult"	"yes"	"no"	"C-T"	"Adults"	"1"	5	7	933	5	23	933	2	23	10.9888888888889
"30004"	"V1"	349	"F"	"sol-inc-1"	10	""	"bluesockR.pct"	""	"redcup.pct"	"l"	"bluesockR.pct"	"Vanilla"	"D"	4	1800	3561	6000	"0.5"	"0.5"	"0.5"	"0.5"	"0.5"	"0.5"	"0.5"	"0.5"	"0.5"	"0.5"	"0.5"	"0.5"	"0.5"	"0.5"	"0.5"	"0.5"	"0.5"	"0.5"	"0.5"	"0.5"	"0.5"	"0.5"	"0.5"	"0.5"	"0.5"	"0.5"	"0.5"	"0.5"	"0.5"	"0.5"	"0.5"	"0.5"	"0.5"	"0.5"	"0.5"	"0.5"	"0.5"	"0.5"	"0.5"	"0.5"	"0.5"	"0.5"	"0.5"	"0.5"	"0.5"	"0.5"	"0.5"	"0.5"	"0.5"	"0.5"	"0.5"	"0.5"	"0.5"	"0.5"	"."	"."	"."	"."	"1"	"1"	"1"	"1"	"1"	"1"	"1"	"1"	"1"	"1"	"1"	"1"	"1"	"1"	"1"	"1"	"1"	"1"	"1"	"1"	"1"	"1"	"1"	"1"	"1"	"1"	"1"	"1"	"1"	"1"	"1"	"."	"."	"0.5"	"0.5"	"0.5"	"0.5"	"0.5"	"0.5"	"0.5"	"0.5"	"0.5"	"0.5"	"0.5"	"0.5"	"0.5"	"0.5"	"0.5"	"0.5"	"0.5"	"0.5"	"0.5"	"0.5"	"0.5"	"0.5"	"0.5"	"0.5"	"0.5"	"0.5"	"0.5"	"0.5"	"0.5"	"0.5"	"0.5"	"0.5"	"0.5"	""	""	""	""	""	""	""	""	""	""	""	""	""	""	""	""	""	""	""	""	""	""	""	NA	NA	NA	1800	NA	0	0	5000	0	5000	"sol-ichart-vanilla1-n41"	"./"	"yes"	NA	"adult"	"yes"	"no"	"C-T"	"Adults"	"1"	4	6	1800	4	31	1800	2	31	15.7521008403361
"30004"	"V1"	349	"F"	"sol-inc-1"	39	""	"kitty4R.pct"	""	"birdy4L.pct"	"l"	"kitty4R.pct"	"Vanilla"	"D"	2	1433	3132	6000	"0.5"	"0.5"	"0.5"	"0.5"	"0.5"	"0.5"	"0.5"	"0.5"	"0.5"	"0.5"	"0.5"	"0.5"	"0.5"	"0.5"	"0.5"	"0.5"	"0.5"	"0.5"	"0.5"	"0.5"	"0.5"	"0.5"	"0.5"	"0.5"	"0.5"	"0.5"	"0.5"	"0.5"	"0.5"	"0.5"	"0.5"	"0.5"	"0.5"	"0.5"	"0.5"	"0.5"	"0.5"	"0.5"	"0.5"	"0.5"	"0.5"	"0.5"	"0.5"	"."	"."	"1"	"1"	"1"	"1"	"1"	"1"	"1"	"1"	"1"	"1"	"1"	"1"	"1"	"1"	"1"	"1"	"1"	"1"	"1"	"1"	"1"	"1"	"1"	"1"	"1"	"1"	"1"	"1"	"1"	"1"	"1"	"1"	"1"	"1"	"1"	"1"	"1"	"1"	"1"	"1"	"1"	"1"	"1"	"1"	"1"	"1"	"1"	"1"	"1"	"1"	"1"	"1"	"1"	"1"	"1"	"1"	"1"	"1"	"1"	"1"	"1"	"1"	"1"	"1"	"1"	"1"	"1"	"1"	"1"	"1"	"1"	"1"	"1"	"1"	"1"	"1"	"1"	"1"	"1"	"1"	"1"	"1"	"1"	"1"	"1"	"1"	"1"	"1"	""	""	""	""	""	""	""	""	""	""	""	""	""	""	NA	NA	NA	1433	NA	0	0	5000	0	5000	"sol-ichart-vanilla1-n41"	"./"	"yes"	NA	"adult"	"yes"	"no"	"C-T"	"Adults"	"1"	2	2	1433	2	88	1433	1	88	11.6856060606061
"30004"	"V1"	349	"F"	"sol-inc-1"	40	""	"cookie1.pct"	""	"juice1.pct"	"r"	"juice1.pct"	"Vanilla"	"D"	4	867	2330	6000	"0.5"	"0.5"	"0.5"	"0.5"	"0.5"	"0.5"	"0.5"	"0.5"	"0.5"	"0.5"	"0.5"	"0.5"	"0.5"	"0.5"	"0.5"	"0.5"	"0.5"	"0.5"	"0.5"	"0.5"	"0.5"	"0.5"	"0.5"	"0.5"	"0.5"	"0.5"	"."	"."	"."	"."	"1"	"1"	"1"	"1"	"1"	"1"	"1"	"1"	"1"	"1"	"1"	"1"	"1"	"1"	"1"	"1"	"1"	"1"	"1"	"1"	"1"	"1"	"1"	"1"	"1"	"1"	"1"	"1"	"1"	"1"	"1"	"1"	"1"	"1"	"1"	"1"	"1"	"1"	"1"	"1"	"1"	"1"	"1"	"1"	"1"	"1"	"1"	"1"	"1"	"1"	"1"	"1"	"1"	"1"	"1"	"1"	"1"	"1"	"1"	"1"	"1"	"1"	""	""	""	""	""	""	""	""	""	""	""	""	""	""	""	""	""	""	""	""	""	""	""	""	""	""	""	""	""	""	""	""	""	""	""	""	""	""	""	""	""	""	""	""	""	""	""	""	""	""	""	""	""	""	""	NA	NA	NA	867	NA	0	0	5000	0	5000	"sol-ichart-vanilla1-n41"	"./"	"yes"	NA	"adult"	"yes"	"no"	"C-T"	"Adults"	"1"	4	4	867	4	62	867	1	62	10.5842696629213
"30004"	"V1"	349	"F"	"sol-inc-1"	41	""	"juice3.pct"	""	"cookie3.pct"	"r"	"cookie3.pct"	"Vanilla"	"D"	4	767	2429	6000	"0.5"	"0.5"	"0.5"	"0.5"	"0.5"	"0.5"	"0.5"	"0.5"	"0.5"	"0.5"	"0.5"	"0.5"	"0.5"	"0.5"	"0.5"	"0.5"	"0.5"	"0.5"	"0.5"	"0.5"	"0.5"	"0.5"	"0.5"	"."	"."	"."	"."	"1"	"1"	"1"	"1"	"1"	"1"	"1"	"1"	"1"	"1"	"1"	"1"	"1"	"1"	"1"	"1"	"1"	"1"	"1"	"1"	"1"	"1"	"1"	"1"	"1"	"1"	"1"	"1"	"1"	"1"	"1"	"1"	"1"	"1"	"1"	"1"	"1"	"1"	"1"	"1"	"1"	"1"	"1"	"1"	"1"	"1"	"1"	"1"	"1"	"."	"."	"0.5"	"0.5"	"0.5"	"0.5"	"0.5"	"0.5"	"0.5"	"0.5"	"0.5"	"0.5"	"0.5"	"0.5"	"0.5"	"0.5"	"0.5"	"0.5"	"0.5"	"0.5"	"0.5"	"0.5"	"0.5"	"0.5"	"0.5"	"0.5"	"0.5"	"0.5"	"0.5"	"0.5"	"0.5"	"0.5"	"0.5"	"0.5"	"0.5"	"0.5"	""	""	""	""	""	""	""	""	""	""	""	""	""	""	""	""	""	""	""	""	""	""	""	""	""	""	""	""	""	""	""	""	""	""	""	NA	NA	NA	767	NA	0	0	5000	0	5000	"sol-ichart-vanilla1-n41"	"./"	"yes"	NA	"adult"	"yes"	"no"	"C-T"	"Adults"	"1"	4	6	767	4	49	767	2	49	7.89252336448598
"30004"	"V1"	349	"F"	"sol-inc-1"	42	""	"redshoeR.pct"	""	"blueball.pct"	"l"	"redshoeR.pct"	"Vanilla"	"D"	3	700	3231	6000	"0.5"	"0.5"	"0.5"	"0.5"	"0.5"	"0.5"	"0.5"	"0.5"	"0.5"	"0.5"	"0.5"	"0.5"	"0.5"	"0.5"	"0.5"	"0.5"	"0.5"	"0.5"	"0.5"	"0.5"	"0.5"	"."	"."	"."	"1"	"1"	"1"	"1"	"1"	"1"	"1"	"1"	"1"	"1"	"1"	"1"	"1"	"1"	"1"	"1"	"1"	"1"	"1"	"1"	"1"	"1"	"1"	"1"	"1"	"1"	"1"	"1"	"1"	"1"	"1"	"1"	"1"	"1"	"1"	"1"	"1"	"1"	"1"	"1"	"1"	"1"	"1"	"1"	"1"	"1"	"1"	"1"	"1"	"1"	"1"	"1"	"1"	"1"	"1"	"1"	"1"	"1"	"."	"."	"."	"0.5"	"0.5"	"0.5"	"0.5"	"0.5"	"0.5"	"0.5"	"0.5"	"0.5"	"0.5"	"0.5"	"0.5"	"0.5"	"0.5"	"0.5"	"0.5"	"0.5"	"0.5"	"0.5"	"0.5"	"0.5"	"0.5"	"0.5"	"0.5"	"0.5"	"0.5"	""	""	""	""	""	""	""	""	""	""	""	""	""	""	""	""	""	""	""	""	""	""	""	""	""	""	""	""	""	""	""	""	""	""	""	""	NA	NA	NA	700	NA	0	0	5000	0	5000	"sol-ichart-vanilla1-n41"	"./"	"yes"	NA	"adult"	"yes"	"no"	"C-T"	"Adults"	"1"	3	6	700	3	58	700	2	58	7.37264150943396
"30004"	"V1"	349	"F"	"sol-inc-1"	43	""	"cookie3.pct"	""	"juice3.pct"	"r"	"juice3.pct"	"Vanilla"	"D"	6	600	2165	6000	"0.5"	"0.5"	"0.5"	"0.5"	"0.5"	"0.5"	"0.5"	"0.5"	"0.5"	"0.5"	"0.5"	"0.5"	"0.5"	"0.5"	"0.5"	"0.5"	"0.5"	"0.5"	"."	"."	"."	"."	"."	"."	"1"	"1"	"1"	"1"	"1"	"1"	"1"	"1"	"1"	"1"	"1"	"1"	"1"	"1"	"1"	"1"	"1"	"1"	"1"	"1"	"1"	"1"	"1"	"1"	"1"	"1"	"1"	"1"	"1"	"1"	"1"	"1"	"1"	"1"	"1"	"1"	"1"	"1"	"1"	"1"	"1"	"1"	"1"	"1"	"1"	"1"	"1"	"1"	"1"	"1"	"1"	"."	"."	"."	"."	"."	"0.5"	"0.5"	"0.5"	"0.5"	"0.5"	"0.5"	"0.5"	"0.5"	"0.5"	"0.5"	"0.5"	"0.5"	"0.5"	"0.5"	"0.5"	"0.5"	"0.5"	"0.5"	"0.5"	"0.5"	"0.5"	"0.5"	"0.5"	"0.5"	"0.5"	"0.5"	"0.5"	"0.5"	"0.5"	"0.5"	""	""	""	""	""	""	""	""	""	""	""	""	""	""	""	""	""	""	""	""	""	""	""	""	""	""	""	""	""	""	""	""	""	""	""	""	""	NA	NA	NA	600	NA	0	0	5000	0	5000	"sol-ichart-vanilla1-n41"	"./"	"yes"	NA	"adult"	"yes"	"no"	"C-T"	"Adults"	"1"	6	11	600	6	51	600	2	51	6.75
"30004"	"V1"	349	"F"	"sol-inc-1"	30	""	"cookie2.pct"	""	"juice2.pct"	"r"	"juice2.pct"	"Vanilla"	"D"	2	1267	2330	6000	"0.5"	"0.5"	"0.5"	"0.5"	"0.5"	"0.5"	"0.5"	"0.5"	"0.5"	"0.5"	"0.5"	"0.5"	"0.5"	"0.5"	"0.5"	"0.5"	"0.5"	"0.5"	"0.5"	"0.5"	"0.5"	"0.5"	"0.5"	"0.5"	"0.5"	"0.5"	"0.5"	"0.5"	"0.5"	"0.5"	"0.5"	"0.5"	"0.5"	"0.5"	"0.5"	"0.5"	"0.5"	"0.5"	"."	"."	"1"	"1"	"1"	"1"	"1"	"1"	"1"	"1"	"1"	"1"	"1"	"1"	"1"	"1"	"1"	"1"	"1"	"1"	"1"	"1"	"1"	"1"	"1"	"1"	"1"	"1"	"1"	"1"	"1"	"1"	"1"	"1"	"1"	"1"	"1"	"1"	"1"	"1"	"1"	"1"	"1"	"1"	"."	"0.5"	"0.5"	"0.5"	"0.5"	"0.5"	"0.5"	"0.5"	"0.5"	"0.5"	""	""	""	""	""	""	""	""	""	""	""	""	""	""	""	""	""	""	""	""	""	""	""	""	""	""	""	""	""	""	""	""	""	""	""	""	""	""	""	""	""	""	""	""	""	""	""	""	""	""	""	""	""	""	""	NA	NA	NA	1267	NA	0	0	5000	0	5000	"sol-ichart-vanilla1-n41"	"./"	"yes"	NA	"adult"	"yes"	"no"	"C-T"	"Adults"	"1"	2	3	1267	2	42	1267	2	42	14.8055555555556
"30004"	"V1"	349	"F"	"sol-inc-1"	31	""	"redshoeR.pct"	""	"redball.pct"	"r"	"redball.pct"	"Vanilla"	"D"	2	1000	3033	6000	"0.5"	"0.5"	"0.5"	"0.5"	"0.5"	"0.5"	"0.5"	"0.5"	"0.5"	"0.5"	"0.5"	"0.5"	"0.5"	"0.5"	"0.5"	"0.5"	"0.5"	"0.5"	"0.5"	"0.5"	"0.5"	"0.5"	"0.5"	"0.5"	"0.5"	"0.5"	"0.5"	"0.5"	"0.5"	"0.5"	"."	"."	"1"	"1"	"1"	"1"	"1"	"1"	"1"	"1"	"1"	"1"	"1"	"1"	"1"	"1"	"1"	"1"	"1"	"1"	"1"	"1"	"1"	"1"	"1"	"1"	"1"	"1"	"1"	"1"	"1"	"1"	"1"	"1"	"1"	"1"	"1"	"1"	"1"	"1"	"1"	"1"	"1"	"1"	"1"	"1"	"1"	"1"	"1"	"1"	"1"	"1"	"1"	"1"	"1"	"1"	"1"	"1"	"1"	"1"	"1"	"1"	"1"	"1"	"1"	"1"	"1"	"1"	"1"	"."	"."	"."	"."	"0.5"	"0.5"	"0.5"	"0.5"	"0.5"	"0.5"	"0.5"	"0.5"	"0.5"	"0.5"	"0.5"	"0.5"	"0.5"	"0.5"	"0.5"	"0.5"	"0.5"	"0.5"	"0.5"	"0.5"	"0.5"	"0.5"	"0.5"	"0.5"	"0.5"	"0.5"	"0.5"	"0.5"	"0.5"	"0.5"	""	""	""	""	""	""	""	""	""	""	""	""	""	""	NA	NA	NA	1000	NA	0	0	5000	0	5000	"sol-ichart-vanilla1-n41"	"./"	"yes"	NA	"adult"	"yes"	"no"	"C-T"	"Adults"	"1"	4	6	3300	2	67	1000	2	67	8.5703125
"30004"	"V1"	349	"F"	"sol-inc-1"	32	""	"cookie1.pct"	""	"juice1.pct"	"l"	"cookie1.pct"	"Vanilla"	"D"	2	1067	2429	6000	"0.5"	"0.5"	"0.5"	"0.5"	"0.5"	"0.5"	"0.5"	"0.5"	"0.5"	"0.5"	"0.5"	"0.5"	"0.5"	"0.5"	"0.5"	"0.5"	"0.5"	"0.5"	"0.5"	"0.5"	"0.5"	"0.5"	"0.5"	"0.5"	"0.5"	"0.5"	"0.5"	"0.5"	"0.5"	"0.5"	"0.5"	"0.5"	"."	"."	"1"	"1"	"1"	"1"	"1"	"1"	"1"	"1"	"1"	"1"	"1"	"1"	"1"	"1"	"1"	"1"	"1"	"1"	"1"	"1"	"1"	"1"	"1"	"1"	"1"	"1"	"1"	"1"	"1"	"1"	"1"	"1"	"1"	"1"	"1"	"1"	"1"	"1"	"1"	"1"	"1"	"1"	"1"	"1"	"1"	"1"	"1"	"1"	"1"	"1"	"1"	"1"	"1"	"1"	"1"	"1"	"1"	"1"	"."	"."	"0.5"	"0.5"	"0.5"	"0.5"	"0.5"	"0.5"	"0.5"	"0.5"	"0.5"	"0.5"	"0.5"	"0.5"	"0.5"	"0.5"	"0.5"	"0.5"	"0.5"	"0.5"	""	""	""	""	""	""	""	""	""	""	""	""	""	""	""	""	""	""	""	""	""	""	""	""	""	""	""	""	""	""	""	""	""	""	""	NA	NA	NA	1067	NA	0	0	5000	0	5000	"sol-ichart-vanilla1-n41"	"./"	"yes"	NA	"adult"	"yes"	"no"	"C-T"	"Adults"	"1"	2	4	1067	2	58	1067	2	58	10.5504587155963
"30004"	"V1"	349	"F"	"sol-inc-1"	34	""	"cookie3.pct"	""	"juice3.pct"	"l"	"cookie3.pct"	"Vanilla"	"D"	6	1133	2330	6000	"0.5"	"0.5"	"0.5"	"0.5"	"0.5"	"0.5"	"0.5"	"0.5"	"0.5"	"0.5"	"0.5"	"0.5"	"0.5"	"0.5"	"0.5"	"0.5"	"0.5"	"0.5"	"0.5"	"0.5"	"0.5"	"0.5"	"0.5"	"0.5"	"0.5"	"0.5"	"0.5"	"0.5"	"0.5"	"0.5"	"0.5"	"0.5"	"0.5"	"0.5"	"."	"."	"."	"."	"."	"."	"1"	"1"	"1"	"1"	"1"	"1"	"1"	"1"	"1"	"1"	"1"	"1"	"1"	"1"	"1"	"1"	"1"	"1"	"1"	"1"	"1"	"1"	"1"	"1"	"1"	"1"	"1"	"1"	"1"	"1"	"1"	"1"	"1"	"1"	"1"	"1"	"1"	"."	"."	"0.5"	"0.5"	"0.5"	"0.5"	"0.5"	"0.5"	"0.5"	"0.5"	"0.5"	"0.5"	"0.5"	"0.5"	"0.5"	"0.5"	"0.5"	"0.5"	"0.5"	"0.5"	"0.5"	"0.5"	"0.5"	"0.5"	"0.5"	"0.5"	"0.5"	"0.5"	"0.5"	"0.5"	"0.5"	"0.5"	"0.5"	"0.5"	"0.5"	"0.5"	"0.5"	"0.5"	"0.5"	""	""	""	""	""	""	""	""	""	""	""	""	""	""	""	""	""	""	""	""	""	""	""	""	""	""	""	""	""	""	""	NA	NA	NA	1133	NA	0	0	5000	0	5000	"sol-ichart-vanilla1-n41"	"./"	"yes"	NA	"adult"	"yes"	"no"	"C-T"	"Adults"	"1"	6	8	1133	6	37	1133	2	37	11.0596330275229
"30004"	"V1"	349	"F"	"sol-inc-1"	35	""	"redshoeR.pct"	""	"blueball.pct"	"r"	"blueball.pct"	"Vanilla"	"D"	2	1067	3066	6000	"0.5"	"0.5"	"0.5"	"0.5"	"0.5"	"0.5"	"0.5"	"0.5"	"0.5"	"0.5"	"0.5"	"0.5"	"0.5"	"0.5"	"0.5"	"0.5"	"0.5"	"0.5"	"0.5"	"0.5"	"0.5"	"0.5"	"0.5"	"0.5"	"0.5"	"0.5"	"0.5"	"0.5"	"0.5"	"0.5"	"0.5"	"0.5"	"."	"."	"1"	"1"	"1"	"1"	"1"	"1"	"1"	"1"	"1"	"1"	"1"	"1"	"1"	"1"	"1"	"1"	"1"	"1"	"1"	"1"	"1"	"1"	"1"	"1"	"1"	"1"	"1"	"1"	"1"	"1"	"1"	"1"	"1"	"1"	"1"	"1"	"1"	"1"	"1"	"1"	"1"	"1"	"1"	"1"	"1"	"1"	"1"	"1"	"1"	"1"	"1"	"1"	"1"	"1"	"1"	"."	"0.5"	"0.5"	"0.5"	"0.5"	"0.5"	"0.5"	"0.5"	"0.5"	"0.5"	"0.5"	"0.5"	"0.5"	"0.5"	"0.5"	"0.5"	"0.5"	"0.5"	"0.5"	"0.5"	"0.5"	"0.5"	"0.5"	"0.5"	"0.5"	"0.5"	"0.5"	"0.5"	""	""	""	""	""	""	""	""	""	""	""	""	""	""	""	""	""	""	""	""	""	""	""	""	""	""	""	""	""	""	NA	NA	NA	1067	NA	0	0	5000	0	5000	"sol-ichart-vanilla1-n41"	"./"	"yes"	NA	"adult"	"yes"	"no"	"C-T"	"Adults"	"1"	2	3	1067	2	55	1067	2	55	10.0130434782609
"30004"	"V1"	349	"F"	"sol-inc-1"	21	""	"blueball.pct"	""	"blueshoeL.pct"	"r"	"blueshoeL.pct"	"Vanilla"	"D"	4	1133	2825	6000	"0.5"	"0.5"	"0.5"	"0.5"	"0.5"	"0.5"	"0.5"	"0.5"	"0.5"	"0.5"	"0.5"	"0.5"	"0.5"	"0.5"	"0.5"	"0.5"	"0.5"	"0.5"	"0.5"	"0.5"	"0.5"	"0.5"	"0.5"	"0.5"	"0.5"	"0.5"	"0.5"	"0.5"	"0.5"	"0.5"	"0.5"	"0.5"	"0.5"	"0.5"	"."	"."	"."	"."	"1"	"1"	"1"	"1"	"1"	"1"	"1"	"1"	"1"	"1"	"1"	"1"	"1"	"1"	"1"	"1"	"1"	"1"	"1"	"1"	"1"	"1"	"1"	"1"	"1"	"1"	"1"	"1"	"1"	"1"	"1"	"1"	"1"	"1"	"1"	"1"	"1"	"1"	"1"	"1"	"1"	"1"	"1"	"1"	"1"	"1"	"1"	"1"	"1"	"1"	"1"	"1"	"."	"."	"0.5"	"0.5"	"0.5"	"0.5"	"0.5"	"0.5"	"0.5"	"0.5"	"0.5"	"0.5"	"0.5"	"0.5"	"0.5"	"0.5"	"0.5"	"0.5"	"0.5"	"0.5"	"0.5"	"0.5"	"0.5"	"0.5"	"0.5"	"0.5"	"0.5"	"0.5"	"0.5"	"0.5"	"0.5"	"0.5"	"0.5"	"0.5"	""	""	""	""	""	""	""	""	""	""	""	""	""	""	""	""	""	""	""	""	""	""	""	NA	NA	NA	1133	NA	0	0	5000	0	5000	"sol-ichart-vanilla1-n41"	"./"	"yes"	NA	"adult"	"yes"	"no"	"C-T"	"Adults"	"1"	4	6	1133	4	52	1133	2	52	10.2352941176471
"30004"	"V1"	349	"F"	"sol-inc-1"	37	""	"doll4L.pct"	""	"teddy3.pct"	"r"	"teddy3.pct"	"Vanilla"	"D"	2	3800	2099	6000	"0.5"	"0.5"	"0.5"	"0.5"	"0.5"	"0.5"	"0.5"	"0.5"	"0.5"	"0.5"	"0.5"	"0.5"	"0.5"	"0.5"	"0.5"	"0.5"	"0.5"	"0.5"	"0.5"	"0.5"	"0.5"	"0.5"	"0.5"	"0.5"	"0.5"	"0.5"	"0.5"	"0.5"	"0.5"	"0.5"	"0.5"	"0.5"	"0.5"	"0.5"	"0.5"	"0.5"	"0.5"	"0.5"	"0.5"	"0.5"	"0.5"	"0.5"	"0.5"	"0.5"	"0.5"	"0.5"	"0.5"	"0.5"	"0.5"	"0.5"	"0.5"	"0.5"	"0.5"	"0.5"	"0.5"	"0.5"	"0.5"	"0.5"	"0.5"	"0.5"	"0.5"	"0.5"	"0.5"	"0.5"	"0.5"	"0.5"	"0.5"	"0.5"	"0.5"	"0.5"	"0.5"	"0.5"	"0.5"	"0.5"	"0.5"	"0.5"	"0.5"	"0.5"	"0.5"	"0.5"	"0.5"	"0.5"	"0.5"	"0.5"	"0.5"	"0.5"	"0.5"	"0.5"	"0.5"	"0.5"	"0.5"	"0.5"	"0.5"	"0.5"	"0.5"	"0.5"	"0.5"	"0.5"	"0.5"	"0.5"	"0.5"	"0.5"	"0.5"	"0.5"	"0.5"	"0.5"	"0.5"	"0.5"	"0.5"	"0.5"	"0.5"	"0.5"	"0.5"	"0.5"	"."	"."	"1"	"1"	"1"	"1"	"1"	"1"	"1"	"1"	""	""	""	""	""	""	""	""	""	""	""	""	""	""	""	""	""	""	""	""	""	""	""	NA	NA	NA	3800	NA	0	0	5000	0	5000	"sol-ichart-vanilla1-n41"	"./"	"yes"	NA	"adult"	"yes"	"no"	"no-shift"	"Adults"	"1"	2	2	3800	2	8	3800	1	8	31.4227642276423
"30004"	"V1"	349	"F"	"sol-inc-1"	38	""	"redsockR.pct"	""	"redcup.pct"	"l"	"redsockR.pct"	"Vanilla"	"D"	3	800	3165	6000	"0.5"	"0.5"	"0.5"	"0.5"	"0.5"	"0.5"	"0.5"	"0.5"	"0.5"	"0.5"	"0.5"	"0.5"	"0.5"	"0.5"	"0.5"	"0.5"	"0.5"	"0.5"	"0.5"	"0.5"	"0.5"	"0.5"	"0.5"	"0.5"	"."	"."	"."	"0"	"0"	"0"	"0"	"0"	"0"	"0"	"0"	"0"	"."	"."	"."	"."	"1"	"1"	"1"	"1"	"1"	"1"	"1"	"1"	"1"	"1"	"1"	"1"	"1"	"1"	"1"	"1"	"1"	"1"	"."	"."	"0.5"	"0.5"	"0.5"	"0.5"	"0.5"	"0.5"	"0.5"	"0.5"	"0.5"	"0.5"	"0.5"	"0.5"	"0.5"	"0.5"	"0.5"	"0.5"	"0.5"	"0.5"	"0.5"	"0.5"	"0.5"	"0.5"	"0.5"	"0.5"	"0.5"	"0.5"	"0.5"	"0.5"	"0.5"	"0.5"	"0.5"	"0.5"	"0.5"	"0.5"	"0.5"	"0.5"	"0.5"	"0.5"	"0.5"	"0.5"	"0.5"	"0.5"	"0.5"	"0.5"	"."	"."	"."	"."	"."	"."	"."	"."	"."	""	""	""	""	""	""	""	""	""	""	""	""	""	""	""	""	""	""	""	""	""	""	""	""	""	""	""	""	""	""	""	""	""	""	NA	NA	NA	800	NA	0	0	5000	0	5000	"sol-ichart-vanilla1-n41"	"./"	"yes"	NA	"adult"	"yes"	"no"	"C-D"	"Adults"	"1"	11	18	3400	3	18	1200	3	9	8.875
"30004"	"V1"	349	"F"	"sol-inc-1"	36	""	"redball.pct"	""	"blueshoeL.pct"	"r"	"blueshoeL.pct"	"Vanilla"	"D"	2	733	2825	6000	"0.5"	"0.5"	"0.5"	"0.5"	"0.5"	"0.5"	"0.5"	"0.5"	"0.5"	"0.5"	"0.5"	"0.5"	"0.5"	"0.5"	"0.5"	"0.5"	"0.5"	"0.5"	"0.5"	"0.5"	"0.5"	"0.5"	"."	"."	"1"	"1"	"1"	"1"	"1"	"1"	"1"	"1"	"1"	"1"	"1"	"1"	"1"	"1"	"1"	"1"	"1"	"1"	"1"	"1"	"1"	"1"	"1"	"1"	"1"	"1"	"1"	"1"	"1"	"1"	"1"	"1"	"1"	"1"	"1"	"1"	"1"	"1"	"1"	"1"	"1"	"1"	"1"	"1"	"1"	"1"	"1"	"1"	"."	"."	"0.5"	"0.5"	"0.5"	"0.5"	"0.5"	"0.5"	"0.5"	"0.5"	"0.5"	"0.5"	"0.5"	"0.5"	"0.5"	"0.5"	"0.5"	"0.5"	"0.5"	"0.5"	"0.5"	"0.5"	"0.5"	"0.5"	"0.5"	"0.5"	"0.5"	"0.5"	"0.5"	"0.5"	"0.5"	"0.5"	"0.5"	"0.5"	"0.5"	"0.5"	"0.5"	"0.5"	"0.5"	"0.5"	"0.5"	"0.5"	"0.5"	"0.5"	"0.5"	"0.5"	"0.5"	"0.5"	"0.5"	"0.5"	"0.5"	""	""	""	""	""	""	""	""	""	""	""	""	""	""	""	""	""	""	""	""	""	""	""	""	NA	NA	NA	733	NA	0	0	5000	0	5000	"sol-ichart-vanilla1-n41"	"./"	"yes"	NA	"adult"	"yes"	"no"	"C-T"	"Adults"	"1"	2	4	733	2	48	733	2	48	6.80416666666667
"30005"	"V1"	575	"M"	"sol-inc-1-prime-nounon"	12	""	"redball.pct"	""	"blueshoeL.pct"	"l"	"redball.pct"	"Vanilla"	"D"	2	700	3033	8000	"0.5"	"0.5"	"0.5"	"0.5"	"0.5"	"0.5"	"0.5"	"0.5"	"0.5"	"0.5"	"0.5"	"0.5"	"0.5"	"0.5"	"0.5"	"0.5"	"0.5"	"0.5"	"0.5"	"0.5"	"0.5"	"."	"."	"1"	"1"	"1"	"1"	"1"	"1"	"1"	"1"	"1"	"1"	"1"	"1"	"1"	"1"	"1"	"1"	"1"	"1"	"1"	"1"	"1"	"1"	"1"	"1"	"1"	"1"	"1"	"1"	"1"	"1"	"1"	"1"	"1"	"1"	"1"	"1"	"1"	"1"	"1"	"1"	"1"	"1"	"1"	"1"	"1"	"1"	"1"	"1"	"1"	"1"	"1"	"1"	"1"	"1"	"1"	"1"	"1"	"1"	"1"	"1"	"1"	"1"	"1"	"1"	"1"	"1"	"1"	"1"	"1"	"1"	"1"	"1"	"1"	"1"	"1"	"1"	"1"	"1"	"1"	"1"	"1"	"1"	"1"	"1"	"1"	"1"	"1"	"1"	"1"	"1"	"1"	"1"	"1"	"1"	"1"	"1"	"1"	"1"	"1"	"1"	"1"	"1"	"1"	"1"	"1"	"1"	"1"	"1"	"1"	""	""	""	""	""	""	""	""	""	""	""	""	""	""	""	NA	NA	NA	700	NA	0	0	5000	0	5000	"sol-ichart-vanilla1-n41"	"./"	"yes"	NA	"adult"	"yes"	"no"	"C-T"	"Adults"	"1"	2	2	700	2	109	700	1	109	6.25572519083969
"30005"	"V1"	575	"M"	"sol-inc-1-prime-nounon"	13	""	"juice1.pct"	""	"cookie1.pct"	"r"	"cookie1.pct"	"Vanilla"	"D"	2	567	2330	8000	"0.5"	"0.5"	"0.5"	"0.5"	"0.5"	"0.5"	"0.5"	"0.5"	"0.5"	"0.5"	"0.5"	"0.5"	"0.5"	"0.5"	"0.5"	"0.5"	"0.5"	"."	"."	"1"	"1"	"1"	"1"	"1"	"1"	"1"	"1"	"1"	"1"	"1"	"1"	"1"	"1"	"1"	"1"	"1"	"1"	"1"	"1"	"1"	"1"	"1"	"1"	"1"	"1"	"1"	"1"	"1"	"1"	"1"	"1"	"1"	"1"	"1"	"1"	"1"	"1"	"1"	"1"	"1"	"1"	"1"	"1"	"1"	"1"	"1"	"1"	"1"	"1"	"1"	"1"	"1"	"1"	"1"	"1"	"1"	"1"	"1"	"1"	"1"	"1"	"1"	"1"	"1"	"1"	"1"	"1"	"1"	"1"	"1"	"1"	"1"	"1"	"1"	"1"	"1"	"1"	"1"	"1"	"1"	"1"	"1"	"1"	"1"	"1"	"1"	"1"	"1"	"1"	"1"	"1"	"1"	"1"	"1"	"1"	""	""	""	""	""	""	""	""	""	""	""	""	""	""	""	""	""	""	""	""	""	""	""	""	""	""	""	""	""	""	""	""	NA	NA	NA	567	NA	0	0	5000	0	5000	"sol-ichart-vanilla1-n41"	"./"	"yes"	NA	"adult"	"yes"	"no"	"C-T"	"Adults"	"1"	2	2	567	2	96	567	1	96	5.89035087719298
"30005"	"V1"	575	"M"	"sol-inc-1-prime-nounon"	15	""	"bluecup.pct"	""	"redsockL.pct"	"l"	"bluecup.pct"	"Vanilla"	"D"	3	800	4330	8000	"0.5"	"0.5"	"0.5"	"0.5"	"0.5"	"0.5"	"0.5"	"0.5"	"0.5"	"0.5"	"0.5"	"0.5"	"0.5"	"0.5"	"0.5"	"0.5"	"0.5"	"0.5"	"0.5"	"0.5"	"0.5"	"0.5"	"0.5"	"0.5"	"."	"."	"."	"1"	"1"	"1"	"1"	"1"	"1"	"1"	"1"	"1"	"1"	"1"	"1"	"1"	"1"	"1"	"1"	"1"	"1"	"1"	"1"	"1"	"1"	"1"	"1"	"1"	"1"	"1"	"1"	"1"	"1"	"1"	"1"	"1"	"1"	"1"	"1"	"1"	"1"	"1"	"1"	"1"	"1"	"1"	"1"	"1"	"1"	"1"	"1"	"1"	"1"	"1"	"1"	"1"	"1"	"1"	"1"	"1"	"1"	"1"	"1"	"1"	"1"	"1"	"1"	"1"	"1"	"1"	"1"	"1"	"1"	"1"	"1"	"1"	"1"	"1"	"1"	"1"	"1"	"1"	"1"	"1"	"1"	"1"	"1"	"1"	"1"	"1"	"1"	"1"	"1"	"1"	"1"	"1"	"1"	"1"	"1"	"1"	"1"	"1"	"1"	"1"	"1"	"1"	"1"	"1"	"1"	"1"	""	""	""	""	""	""	""	""	""	""	""	""	""	NA	NA	NA	800	NA	0	0	5000	0	5000	"sol-ichart-vanilla1-n41"	"./"	"yes"	NA	"adult"	"yes"	"no"	"C-T"	"Adults"	"1"	3	3	800	3	107	800	1	107	6.96212121212121
"30005"	"V1"	575	"M"	"sol-inc-1-prime-nounon"	16	""	"redshoeR.pct"	""	"redball.pct"	"l"	"redshoeR.pct"	"Vanilla"	"D"	2	600	3231	8000	"0.5"	"0.5"	"0.5"	"0.5"	"0.5"	"0.5"	"0.5"	"0.5"	"0.5"	"0.5"	"0.5"	"0.5"	"0.5"	"0.5"	"0.5"	"0.5"	"0.5"	"0.5"	"."	"."	"1"	"1"	"1"	"1"	"1"	"1"	"1"	"1"	"1"	"1"	"1"	"1"	"1"	"1"	"1"	"1"	"1"	"1"	"1"	"1"	"1"	"1"	"1"	"1"	"1"	"1"	"1"	"1"	"1"	"1"	"1"	"1"	"1"	"1"	"1"	"1"	"1"	"1"	"1"	"1"	"1"	"1"	"1"	"1"	"1"	"1"	"1"	"1"	"1"	"1"	"1"	"1"	"1"	"1"	"1"	"1"	"1"	"1"	"1"	"1"	"1"	"1"	"1"	"1"	"1"	"1"	"1"	"1"	"1"	"1"	"1"	"1"	"1"	"1"	"1"	"1"	"1"	"1"	"1"	"1"	"1"	"1"	"1"	"1"	"1"	"1"	"1"	"1"	"1"	"1"	""	""	""	""	""	""	""	""	""	""	""	""	""	""	""	""	""	""	""	""	""	""	""	""	""	""	""	""	""	""	""	""	""	""	""	""	""	NA	NA	NA	600	NA	0	0	5000	0	5000	"sol-ichart-vanilla1-n41"	"./"	"yes"	NA	"adult"	"yes"	"no"	"C-T"	"Adults"	"1"	2	2	600	2	90	600	1	90	6.41284403669725
"30005"	"V1"	575	"M"	"sol-inc-1-prime-nounon"	17	""	"birdy3R.pct"	""	"kitty2L.pct"	"r"	"kitty2L.pct"	"Vanilla"	"D"	2	667	2297	8000	"0.5"	"0.5"	"0.5"	"0.5"	"0.5"	"0.5"	"0.5"	"0.5"	"0.5"	"0.5"	"0.5"	"0.5"	"0.5"	"0.5"	"0.5"	"0.5"	"0.5"	"0.5"	"0.5"	"0.5"	"."	"."	"1"	"1"	"1"	"1"	"1"	"1"	"1"	"1"	"1"	"1"	"1"	"1"	"1"	"1"	"1"	"1"	"1"	"1"	"1"	"1"	"1"	"1"	"1"	"1"	"1"	"1"	"1"	"1"	"1"	"1"	"1"	"1"	"1"	"1"	"1"	"1"	"1"	"1"	"1"	"1"	"1"	"1"	"1"	"1"	"1"	"1"	"1"	"1"	"1"	"1"	"1"	"1"	"1"	"1"	"1"	"1"	"1"	"1"	"1"	"1"	"1"	"1"	"1"	"1"	"1"	"1"	"1"	"1"	"1"	"1"	"1"	"1"	"1"	"1"	"1"	"1"	"1"	"1"	"1"	"1"	"1"	"1"	"1"	"1"	"1"	"1"	"1"	"1"	"1"	"1"	"1"	"1"	"1"	"1"	"1"	"1"	"1"	"1"	"1"	"1"	"1"	"1"	"1"	"1"	"1"	"1"	"1"	"1"	"1"	"1"	"1"	"1"	""	""	""	""	""	""	""	""	""	""	""	""	""	NA	NA	NA	667	NA	0	0	5000	0	5000	"sol-ichart-vanilla1-n41"	"./"	"yes"	NA	"adult"	"yes"	"no"	"C-T"	"Adults"	"1"	2	2	667	2	112	667	1	112	5.93233082706767
"30005"	"V1"	575	"M"	"sol-inc-1-prime-nounon"	14	""	"cookie1.pct"	""	"juice1.pct"	"r"	"juice1.pct"	"Vanilla"	"D"	2	600	2165	8000	"0.5"	"0.5"	"0.5"	"0.5"	"0.5"	"0.5"	"0.5"	"0.5"	"0.5"	"0.5"	"0.5"	"0.5"	"0.5"	"0.5"	"0.5"	"0.5"	"0.5"	"0.5"	"."	"."	"1"	"1"	"1"	"1"	"1"	"1"	"1"	"1"	"1"	"1"	"1"	"1"	"1"	"1"	"1"	"1"	"1"	"1"	"1"	"1"	"1"	"1"	"1"	"1"	"1"	"1"	"1"	"1"	"1"	"1"	"1"	"1"	"1"	"1"	"1"	"1"	"1"	"1"	"1"	"1"	"1"	"1"	"1"	"1"	"1"	"1"	"1"	"1"	"1"	"1"	"1"	"1"	"1"	"1"	"1"	"1"	"1"	"1"	"1"	"1"	"1"	"1"	"1"	"1"	"1"	"1"	"1"	"1"	"1"	"1"	"1"	"1"	"1"	"1"	"1"	"1"	"1"	"1"	"1"	"1"	"1"	"1"	"1"	"1"	"1"	"1"	"1"	"1"	"1"	""	""	""	""	""	""	""	""	""	""	""	""	""	""	""	""	""	""	""	""	""	""	""	""	""	""	""	""	""	""	""	""	""	""	""	""	""	""	NA	NA	NA	600	NA	0	0	5000	0	5000	"sol-ichart-vanilla1-n41"	"./"	"yes"	NA	"adult"	"yes"	"no"	"C-T"	"Adults"	"1"	2	2	600	2	89	600	1	89	6.46296296296296
"30005"	"V1"	575	"M"	"sol-inc-1-prime-nounon"	20	""	"bluecup.pct"	""	"bluesockL.pct"	"r"	"bluesockL.pct"	"Vanilla"	"D"	2	667	3561	8000	"0.5"	"0.5"	"0.5"	"0.5"	"0.5"	"0.5"	"0.5"	"0.5"	"0.5"	"0.5"	"0.5"	"0.5"	"0.5"	"0.5"	"0.5"	"0.5"	"0.5"	"0.5"	"0.5"	"0.5"	"."	"."	"1"	"1"	"1"	"1"	"1"	"1"	"1"	"1"	"1"	"1"	"1"	"1"	"1"	"1"	"1"	"1"	"1"	"1"	"1"	"1"	"1"	"1"	"1"	"1"	"1"	"1"	"1"	"1"	"1"	"1"	"1"	"1"	"1"	"1"	"1"	"1"	"1"	"1"	"1"	"1"	"1"	"1"	"1"	"1"	"1"	"1"	"1"	"1"	"1"	"1"	"1"	"1"	"1"	"1"	"1"	"1"	"1"	"1"	"1"	"1"	"1"	"1"	"1"	"1"	"1"	"1"	"1"	"1"	"1"	"1"	"1"	"1"	"1"	"1"	"1"	"1"	"1"	"1"	"1"	"1"	"1"	"1"	"1"	"1"	"1"	"1"	"1"	"1"	"1"	"1"	"1"	"1"	"1"	"1"	"1"	"1"	"1"	"1"	"1"	"1"	"1"	"1"	""	""	""	""	""	""	""	""	""	""	""	""	""	""	""	""	""	""	""	""	""	""	""	NA	NA	NA	667	NA	0	0	5000	0	5000	"sol-ichart-vanilla1-n41"	"./"	"yes"	NA	"adult"	"yes"	"no"	"C-T"	"Adults"	"1"	2	2	667	2	102	667	1	102	6.33333333333333
"30005"	"V1"	575	"M"	"sol-inc-1-prime-nounon"	21	""	"teddy2.pct"	""	"doll2L.pct"	"l"	"teddy2.pct"	"Vanilla"	"D"	2	1100	2099	8000	"0.5"	"0.5"	"0.5"	"0.5"	"0.5"	"0.5"	"0.5"	"0.5"	"0.5"	"0.5"	"0.5"	"0.5"	"0.5"	"0.5"	"0.5"	"0.5"	"0.5"	"0.5"	"0.5"	"0.5"	"0.5"	"0.5"	"0.5"	"0.5"	"0.5"	"0.5"	"0.5"	"0.5"	"0.5"	"0.5"	"0.5"	"0.5"	"0.5"	"."	"."	"1"	"1"	"1"	"1"	"1"	"1"	"1"	"1"	"1"	"1"	"1"	"1"	"1"	"1"	"1"	"1"	"1"	"1"	"1"	"1"	"1"	"1"	"1"	"1"	"1"	"1"	"1"	"1"	"1"	"1"	"1"	"1"	"1"	"1"	"1"	"1"	"1"	"1"	"1"	"1"	"1"	"1"	"1"	"1"	"1"	"1"	"1"	"1"	"1"	"1"	"1"	"1"	"1"	"1"	"1"	"1"	"1"	"1"	"1"	"1"	"1"	"1"	"1"	"1"	"1"	"1"	"1"	"1"	"1"	"1"	"1"	"1"	"1"	"1"	"1"	"1"	"1"	"1"	"1"	"1"	"1"	"1"	"1"	"1"	"1"	"1"	"1"	"1"	"1"	""	""	""	""	""	""	""	""	""	""	""	""	""	""	""	""	""	""	""	""	""	""	""	NA	NA	NA	1100	NA	0	0	5000	0	5000	"sol-ichart-vanilla1-n41"	"./"	"yes"	NA	"adult"	"yes"	"no"	"C-T"	"Adults"	"1"	2	2	1100	2	89	1100	1	89	9.80081300813008
"30005"	"V1"	575	"M"	"sol-inc-1-prime-nounon"	22	""	"cookie1.pct"	""	"juice1.pct"	"r"	"juice1.pct"	"Vanilla"	"D"	2	800	2165	8000	"0.5"	"0.5"	"0.5"	"0.5"	"0.5"	"0.5"	"0.5"	"0.5"	"0.5"	"0.5"	"0.5"	"0.5"	"0.5"	"0.5"	"0.5"	"0.5"	"0.5"	"0.5"	"0.5"	"0.5"	"0.5"	"0.5"	"0.5"	"0.5"	"."	"."	"1"	"1"	"1"	"1"	"1"	"1"	"1"	"1"	"1"	"1"	"1"	"1"	"1"	"1"	"1"	"1"	"1"	"1"	"1"	"1"	"1"	"1"	"1"	"1"	"1"	"1"	"1"	"1"	"1"	"1"	"1"	"1"	"1"	"1"	"1"	"1"	"1"	"1"	"1"	"1"	"1"	"1"	"1"	"1"	"1"	"1"	"1"	"1"	"1"	"1"	"1"	"1"	"1"	"1"	"1"	"1"	"1"	"1"	"1"	"1"	"1"	"1"	"1"	"1"	"1"	"1"	"1"	"1"	"1"	"1"	"1"	"1"	"1"	"1"	"1"	"1"	"1"	"1"	"1"	"1"	"1"	"1"	""	""	""	""	""	""	""	""	""	""	""	""	""	""	""	""	""	""	""	""	""	""	""	""	""	""	""	""	""	""	""	""	""	""	""	""	""	""	""	NA	NA	NA	800	NA	0	0	5000	0	5000	"sol-ichart-vanilla1-n41"	"./"	"yes"	NA	"adult"	"yes"	"no"	"C-T"	"Adults"	"1"	2	2	800	2	82	800	1	82	8.35514018691589
"30005"	"V1"	575	"M"	"sol-inc-1-prime-nounon"	19	""	"blueball.pct"	""	"blueshoeL.pct"	"r"	"blueshoeL.pct"	"Vanilla"	"D"	2	633	2825	8000	"0.5"	"0.5"	"0.5"	"0.5"	"0.5"	"0.5"	"0.5"	"0.5"	"0.5"	"0.5"	"0.5"	"0.5"	"0.5"	"0.5"	"0.5"	"0.5"	"0.5"	"0.5"	"0.5"	"."	"."	"1"	"1"	"1"	"1"	"1"	"1"	"1"	"1"	"1"	"1"	"1"	"1"	"1"	"1"	"1"	"1"	"1"	"1"	"1"	"1"	"1"	"1"	"1"	"1"	"1"	"1"	"1"	"1"	"1"	"1"	"1"	"1"	"1"	"1"	"1"	"1"	"1"	"1"	"1"	"1"	"1"	"1"	"1"	"1"	"1"	"1"	"1"	"1"	"1"	"1"	"1"	"1"	"1"	"1"	"1"	"1"	"1"	"1"	"1"	"1"	"1"	"1"	"1"	"."	"."	"."	"."	"0.5"	"0.5"	"0.5"	"0.5"	"0.5"	"0.5"	"0.5"	"0.5"	"0.5"	"0.5"	"0.5"	"0.5"	"0.5"	"0.5"	"0.5"	"0.5"	"0.5"	"0.5"	"0.5"	"0.5"	"0.5"	"0.5"	"0.5"	"0.5"	"0.5"	"0.5"	"0.5"	"0.5"	"0.5"	"0.5"	"0.5"	"0.5"	"0.5"	"0.5"	"0.5"	"0.5"	""	""	""	""	""	""	""	""	""	""	""	""	""	""	""	""	""	""	""	""	""	""	""	NA	NA	NA	633	NA	0	0	5000	0	5000	"sol-ichart-vanilla1-n41"	"./"	"yes"	NA	"adult"	"yes"	"no"	"C-T"	"Adults"	"1"	4	6	2800	2	63	633	2	63	6.07983193277311
"30005"	"V1"	575	"M"	"sol-inc-1-prime-nounon"	24	""	"bluesockR.pct"	""	"redcup.pct"	"r"	"redcup.pct"	"Vanilla"	"D"	2	967	3594	8000	"0.5"	"0.5"	"0.5"	"0.5"	"0.5"	"0.5"	"0.5"	"0.5"	"0.5"	"0.5"	"0.5"	"0.5"	"0.5"	"0.5"	"0.5"	"0.5"	"0.5"	"0.5"	"0.5"	"0.5"	"0.5"	"0.5"	"0.5"	"0.5"	"0.5"	"0.5"	"0.5"	"0.5"	"0.5"	"."	"."	"1"	"1"	"1"	"1"	"1"	"1"	"1"	"1"	"1"	"1"	"1"	"1"	"1"	"1"	"1"	"1"	"1"	"1"	"1"	"1"	"1"	"1"	"1"	"1"	"1"	"1"	"1"	"1"	"1"	"1"	"1"	"1"	"1"	"1"	"1"	"1"	"1"	"1"	"1"	"1"	"1"	"1"	"1"	"1"	"."	"."	"."	"."	"."	"0.5"	"0.5"	"0.5"	"0.5"	"0.5"	"0.5"	"0.5"	"0.5"	"0.5"	"0.5"	"0.5"	"0.5"	"."	"."	"."	"."	"."	"."	"."	"."	"."	"."	"."	"."	"."	"."	"."	"."	"."	"."	"."	"."	"."	"."	"."	"."	"."	"."	"."	"."	"."	"-"	"."	"0.5"	"0.5"	"0.5"	"0.5"	"0.5"	"0.5"	"0.5"	"0.5"	"0.5"	"0.5"	"0.5"	"0.5"	"0.5"	"0.5"	"0.5"	"0.5"	"0.5"	"0.5"	"0.5"	"0.5"	"0.5"	"0.5"	""	""	NA	NA	NA	967	NA	0	0	5000	0	5000	"sol-ichart-vanilla1-n41"	"./"	"yes"	NA	"adult"	"yes"	"no"	"C-T"	"Adults"	"1"	36	38	2900	2	44	967	2	44	9.65277777777778
"30005"	"V1"	575	"M"	"sol-inc-1-prime-nounon"	25	""	"juice2.pct"	""	"cookie2.pct"	"r"	"cookie2.pct"	"Vanilla"	"D"	4	2233	2330	8000	"0.5"	"0.5"	"0.5"	"0.5"	"0.5"	"0.5"	"0.5"	"0.5"	"0.5"	"0.5"	"0.5"	"0.5"	"0.5"	"0.5"	"0.5"	"0.5"	"0.5"	"0.5"	"0.5"	"0.5"	"0.5"	"0.5"	"0.5"	"0.5"	"0.5"	"0.5"	"0.5"	"0.5"	"0.5"	"0.5"	"0.5"	"0.5"	"0.5"	"0.5"	"0.5"	"0.5"	"0.5"	"0.5"	"0.5"	"0.5"	"0.5"	"0.5"	"0.5"	"0.5"	"0.5"	"0.5"	"0.5"	"0.5"	"0.5"	"0.5"	"0.5"	"0.5"	"0.5"	"0.5"	"0.5"	"0.5"	"0.5"	"0.5"	"0.5"	"0.5"	"0.5"	"0.5"	"0.5"	"0.5"	"0.5"	"0.5"	"0.5"	"."	"."	"."	"."	"1"	"1"	"1"	"1"	"1"	"1"	"1"	"1"	"1"	"1"	"1"	"1"	"1"	"1"	"1"	"1"	"1"	"1"	"1"	"1"	"1"	"1"	"1"	"1"	"1"	"1"	"1"	"1"	"1"	"1"	"1"	"1"	"1"	"1"	"1"	"1"	"1"	"1"	"1"	"1"	"1"	"1"	"1"	"1"	"1"	""	""	""	""	""	""	""	""	""	""	""	""	""	""	""	""	""	""	""	""	""	""	""	""	""	""	""	""	""	""	""	NA	NA	NA	2233	NA	0	0	5000	0	5000	"sol-ichart-vanilla1-n41"	"./"	"yes"	NA	"adult"	"yes"	"no"	"C-T"	"Adults"	"1"	4	4	2233	4	45	2233	1	45	20.4557522123894
"30005"	"V1"	575	"M"	"sol-inc-1-prime-nounon"	26	""	"doll1L.pct"	""	"teddy1.pct"	"l"	"doll1L.pct"	"Vanilla"	"D"	2	1100	1924	8000	"0.5"	"0.5"	"0.5"	"0.5"	"0.5"	"0.5"	"0.5"	"0.5"	"0.5"	"0.5"	"0.5"	"0.5"	"0.5"	"0.5"	"0.5"	"0.5"	"0.5"	"0.5"	"0.5"	"0.5"	"0.5"	"0.5"	"0.5"	"0.5"	"0.5"	"0.5"	"0.5"	"0.5"	"0.5"	"0.5"	"0.5"	"0.5"	"0.5"	"."	"."	"1"	"1"	"1"	"1"	"1"	"1"	"1"	"1"	"1"	"1"	"1"	"1"	"1"	"1"	"1"	"1"	"1"	"1"	"1"	"1"	"1"	"1"	"1"	"1"	"1"	"1"	"1"	"1"	"1"	"1"	"1"	"1"	"1"	"1"	"1"	"1"	"1"	"1"	"1"	"1"	"1"	"1"	"1"	"1"	"1"	"1"	"1"	"1"	"1"	"1"	"1"	"1"	"1"	"1"	"1"	"1"	"1"	"1"	"1"	"1"	"1"	"1"	"1"	"1"	"1"	"1"	"1"	"1"	"1"	"1"	"1"	"1"	"1"	"1"	"1"	"1"	"1"	"1"	"1"	"1"	"1"	"1"	"1"	"1"	""	""	""	""	""	""	""	""	""	""	""	""	""	""	""	""	""	""	""	""	""	""	""	""	""	""	""	""	NA	NA	NA	1100	NA	0	0	5000	0	5000	"sol-ichart-vanilla1-n41"	"./"	"yes"	NA	"adult"	"yes"	"no"	"C-T"	"Adults"	"1"	2	2	1100	2	84	1100	1	84	10.1737288135593
"30005"	"V1"	575	"M"	"sol-inc-1-prime-nounon"	27	""	"bluecup.pct"	""	"bluesockL.pct"	"l"	"bluecup.pct"	"Vanilla"	"D"	2	433	4330	8000	"0.5"	"0.5"	"0.5"	"0.5"	"0.5"	"0.5"	"0.5"	"0.5"	"0.5"	"0.5"	"0.5"	"0.5"	"0.5"	"."	"."	"1"	"1"	"1"	"1"	"1"	"1"	"1"	"1"	"1"	"1"	"1"	"1"	"1"	"1"	"1"	"1"	"1"	"1"	"1"	"1"	"1"	"1"	"1"	"1"	"1"	"1"	"1"	"1"	"1"	"1"	"1"	"1"	"1"	"1"	"1"	"1"	"1"	"1"	"1"	"1"	"1"	"1"	"1"	"1"	"1"	"1"	"1"	"1"	"1"	"1"	"1"	"1"	"1"	"1"	"1"	"1"	"1"	"1"	"1"	"1"	"1"	"1"	"1"	"1"	"1"	"1"	"1"	"1"	"1"	"1"	"1"	"1"	"1"	"1"	"1"	"1"	"1"	"1"	"1"	"1"	"1"	"1"	"1"	"1"	"1"	"1"	"1"	"1"	"1"	"1"	"1"	"1"	"1"	"1"	"1"	"1"	"1"	"1"	"1"	"1"	"1"	"1"	"1"	"1"	"1"	"1"	"1"	"1"	"1"	"1"	"1"	"1"	"1"	"1"	"1"	"1"	"1"	"1"	"1"	""	""	""	""	""	""	""	""	""	""	""	""	""	NA	NA	NA	433	NA	0	0	5000	0	5000	"sol-ichart-vanilla1-n41"	"./"	"yes"	NA	"adult"	"yes"	"no"	"C-T"	"Adults"	"1"	2	2	433	2	119	433	1	119	4.19924812030075
"30005"	"V1"	575	"M"	"sol-inc-1-prime-nounon"	28	""	"cookie2.pct"	""	"juice2.pct"	"r"	"juice2.pct"	"Vanilla"	"D"	4	333	2330	8000	"0.5"	"0.5"	"0.5"	"0.5"	"0.5"	"0.5"	"0.5"	"0.5"	"0.5"	"0.5"	"."	"."	"."	"."	"1"	"1"	"1"	"1"	"1"	"1"	"1"	"1"	"1"	"1"	"1"	"1"	"1"	"1"	"1"	"1"	"1"	"1"	"1"	"1"	"1"	"1"	"1"	"1"	"1"	"1"	"1"	"1"	"1"	"1"	"1"	"1"	"1"	"1"	"1"	"1"	"1"	"1"	"1"	"1"	"1"	"1"	"1"	"1"	"1"	"1"	"1"	"1"	"1"	"1"	"1"	"1"	"1"	"1"	"1"	"1"	"1"	"1"	"1"	"1"	"1"	"1"	"1"	"1"	"1"	"1"	"1"	"1"	"1"	"1"	"1"	"1"	"1"	"1"	"1"	"1"	"1"	""	""	""	""	""	""	""	""	""	""	""	""	""	""	""	""	""	""	""	""	""	""	""	""	""	""	""	""	""	""	""	""	""	""	""	""	""	""	""	""	""	""	""	""	""	""	""	""	""	""	""	""	""	""	""	""	NA	NA	NA	333	NA	0	0	5000	0	5000	"sol-ichart-vanilla1-n41"	"./"	"yes"	NA	"adult"	"yes"	"no"	"C-T"	"Adults"	"1"	4	4	333	4	77	333	1	77	4.71590909090909
"30005"	"V1"	575	"M"	"sol-inc-1-prime-nounon"	29	""	"redshoeR.pct"	""	"redball.pct"	"r"	"redball.pct"	"Vanilla"	"D"	3	600	3033	8000	"0.5"	"0.5"	"0.5"	"0.5"	"0.5"	"0.5"	"0.5"	"0.5"	"0.5"	"0.5"	"0.5"	"0.5"	"0.5"	"0.5"	"0.5"	"0.5"	"0.5"	"0.5"	"."	"."	"."	"1"	"1"	"1"	"1"	"1"	"1"	"1"	"1"	"1"	"1"	"1"	"1"	"1"	"1"	"1"	"1"	"1"	"1"	"1"	"1"	"1"	"1"	"1"	"1"	"1"	"1"	"1"	"1"	"1"	"1"	"1"	"1"	"1"	"1"	"1"	"1"	"1"	"1"	"1"	"1"	"1"	"1"	"1"	"1"	"1"	"1"	"1"	"1"	"1"	"1"	"1"	"1"	"1"	"1"	"1"	"1"	"1"	"1"	"1"	"1"	"1"	"1"	"1"	"1"	"1"	"1"	"1"	"1"	"1"	"1"	"1"	"1"	"1"	"1"	"1"	"1"	"1"	"1"	"1"	"1"	"1"	"1"	"1"	"1"	"1"	"1"	"1"	"1"	"1"	"1"	"1"	"1"	"1"	"1"	"1"	"1"	"1"	"1"	"1"	"1"	"1"	"1"	"1"	"1"	"1"	"1"	"1"	"1"	"1"	"1"	""	""	""	""	""	""	""	""	""	""	""	""	""	""	""	""	NA	NA	NA	600	NA	0	0	5000	0	5000	"sol-ichart-vanilla1-n41"	"./"	"yes"	NA	"adult"	"yes"	"no"	"C-T"	"Adults"	"1"	3	3	600	3	110	600	1	110	5.57364341085271
"30005"	"V1"	575	"M"	"sol-inc-1-prime-nounon"	30	""	"cookie1.pct"	""	"juice1.pct"	"l"	"cookie1.pct"	"Vanilla"	"D"	2	400	2429	8000	"0.5"	"0.5"	"0.5"	"0.5"	"0.5"	"0.5"	"0.5"	"0.5"	"0.5"	"0.5"	"0.5"	"0.5"	"."	"."	"1"	"1"	"1"	"1"	"1"	"1"	"1"	"1"	"1"	"1"	"1"	"1"	"1"	"1"	"1"	"1"	"1"	"1"	"1"	"1"	"1"	"1"	"1"	"1"	"1"	"1"	"1"	"1"	"1"	"1"	"1"	"1"	"1"	"1"	"1"	"1"	"1"	"1"	"1"	"1"	"1"	"1"	"1"	"1"	"1"	"1"	"1"	"1"	"1"	"1"	"1"	"1"	"1"	"1"	"1"	"1"	"1"	"1"	"1"	"1"	"1"	"1"	"1"	"1"	"1"	"1"	"1"	"1"	"1"	"1"	"1"	"1"	"1"	"1"	"1"	"1"	"1"	"1"	"1"	"1"	"1"	"1"	"1"	"1"	"1"	"1"	"1"	"1"	"1"	"1"	"1"	"1"	"1"	"1"	"1"	"1"	"1"	"1"	"1"	""	""	""	""	""	""	""	""	""	""	""	""	""	""	""	""	""	""	""	""	""	""	""	""	""	""	""	""	""	""	""	""	""	""	NA	NA	NA	400	NA	0	0	5000	0	5000	"sol-ichart-vanilla1-n41"	"./"	"yes"	NA	"adult"	"yes"	"no"	"C-T"	"Adults"	"1"	2	2	400	2	99	400	1	99	4.50892857142857
"30005"	"V1"	575	"M"	"sol-inc-1-prime-nounon"	2	""	"teddy1.pct"	""	"doll1L.jpg"	"r"	"doll1L.jpg"	"Vanilla"	"D"	2	767	2066	8000	"0.5"	"0.5"	"0.5"	"0.5"	"0.5"	"0.5"	"0.5"	"0.5"	"0.5"	"0.5"	"0.5"	"0.5"	"0.5"	"0.5"	"0.5"	"0.5"	"0.5"	"0.5"	"0.5"	"0.5"	"0.5"	"0.5"	"0.5"	"."	"."	"0"	"0"	"0"	"0"	"0"	"."	"."	"1"	"1"	"1"	"1"	"1"	"1"	"1"	"1"	"1"	"1"	"1"	"1"	"1"	"1"	"1"	"1"	"1"	"1"	"1"	"1"	"1"	"1"	"1"	"1"	"1"	"1"	"1"	"1"	"1"	"1"	"1"	"1"	"1"	"1"	"1"	"1"	"1"	"1"	"1"	"1"	"1"	"1"	"1"	"1"	"1"	"1"	"1"	"1"	"1"	"1"	"1"	"1"	"1"	"1"	"1"	"1"	"1"	"1"	"1"	"1"	"1"	"1"	"1"	"1"	"1"	"1"	"1"	"1"	"1"	"1"	"1"	"1"	"1"	"1"	"1"	"1"	"1"	"1"	"1"	""	""	""	""	""	""	""	""	""	""	""	""	""	""	""	""	""	""	""	""	""	""	""	""	""	""	""	""	""	""	""	""	""	""	""	""	NA	NA	NA	767	NA	0	0	5000	0	5000	"sol-ichart-vanilla1-n41"	"./"	"yes"	NA	"adult"	"yes"	"no"	"C-D"	"Adults"	"1"	2	4	767	2	79	1000	2	5	7.93981481481481
"30005"	"V1"	575	"M"	"sol-inc-1-prime-nounon"	3	""	"bluecup.pct"	""	"redsockL.pct"	"r"	"redsockL.pct"	"Vanilla"	"D"	2	633	3165	8000	"0.5"	"0.5"	"0.5"	"0.5"	"0.5"	"0.5"	"0.5"	"0.5"	"0.5"	"0.5"	"0.5"	"0.5"	"0.5"	"0.5"	"0.5"	"0.5"	"0.5"	"0.5"	"0.5"	"."	"."	"1"	"1"	"1"	"1"	"1"	"1"	"1"	"1"	"1"	"1"	"1"	"1"	"1"	"1"	"1"	"1"	"1"	"1"	"1"	"1"	"1"	"1"	"1"	"1"	"1"	"1"	"1"	"1"	"1"	"1"	"1"	"1"	"1"	"1"	"1"	"1"	"1"	"1"	"1"	"1"	"1"	"1"	"1"	"1"	"1"	"1"	"1"	"1"	"1"	"1"	"1"	"1"	"1"	"1"	"1"	"1"	"1"	"1"	"1"	"1"	"1"	"1"	"1"	"1"	"1"	"1"	"1"	"1"	"1"	"1"	"1"	"1"	"1"	"1"	"1"	"1"	"1"	"1"	"1"	"1"	"1"	"1"	"1"	"1"	"1"	"1"	"1"	"1"	"1"	"1"	"1"	""	""	""	""	""	""	""	""	""	""	""	""	""	""	""	""	""	""	""	""	""	""	""	""	""	""	""	""	""	""	""	""	""	""	""	NA	NA	NA	633	NA	0	0	5000	0	5000	"sol-ichart-vanilla1-n41"	"./"	"yes"	NA	"adult"	"yes"	"no"	"C-T"	"Adults"	"1"	2	2	633	2	91	633	1	91	6.60810810810811
"30005"	"V1"	575	"M"	"sol-inc-1-prime-nounon"	4	""	"juice1.pct"	""	"cookie1.pct"	"l"	"juice1.pct"	"Vanilla"	"D"	2	767	2165	8000	"0.5"	"0.5"	"0.5"	"0.5"	"0.5"	"0.5"	"0.5"	"0.5"	"0.5"	"0.5"	"0.5"	"0.5"	"0.5"	"0.5"	"0.5"	"0.5"	"0.5"	"0.5"	"0.5"	"0.5"	"0.5"	"0.5"	"0.5"	"."	"."	"0"	"0"	"0"	"0"	"."	"."	"."	"1"	"1"	"1"	"1"	"1"	"1"	"1"	"1"	"1"	"1"	"1"	"1"	"1"	"1"	"1"	"1"	"1"	"1"	"1"	"1"	"1"	"1"	"1"	"1"	"1"	"1"	"1"	"1"	"1"	"1"	"1"	"1"	"1"	"1"	"1"	"1"	"1"	"1"	"1"	"1"	"1"	"1"	"1"	"1"	"1"	"1"	"1"	"1"	"1"	"1"	"1"	"1"	"1"	"1"	"1"	"1"	"1"	"1"	"1"	"1"	"1"	"1"	"1"	"1"	"1"	"1"	"1"	"1"	"1"	"1"	"1"	"1"	"1"	"1"	"1"	"1"	""	""	""	""	""	""	""	""	""	""	""	""	""	""	""	""	""	""	""	""	""	""	""	""	""	""	""	""	""	""	""	""	""	""	""	""	""	""	""	NA	NA	NA	767	NA	0	0	5000	0	5000	"sol-ichart-vanilla1-n41"	"./"	"yes"	NA	"adult"	"yes"	"no"	"C-D"	"Adults"	"1"	3	5	967	2	76	967	2	4	8.21634615384615
"30005"	"V1"	575	"M"	"sol-inc-1-prime-nounon"	5	""	"cookie2.pct"	""	"juice2.pct"	"l"	"cookie2.pct"	"Vanilla"	"D"	2	633	2330	8000	"0.5"	"0.5"	"0.5"	"0.5"	"0.5"	"0.5"	"0.5"	"0.5"	"0.5"	"0.5"	"0.5"	"0.5"	"0.5"	"0.5"	"0.5"	"0.5"	"0.5"	"0.5"	"0.5"	"."	"."	"1"	"1"	"1"	"1"	"1"	"1"	"1"	"1"	"1"	"1"	"1"	"1"	"1"	"1"	"1"	"1"	"1"	"1"	"1"	"1"	"1"	"1"	"1"	"1"	"1"	"1"	"1"	"1"	"1"	"1"	"1"	"1"	"1"	"1"	"1"	"1"	"1"	"1"	"1"	"1"	"1"	"1"	"1"	"1"	"1"	"1"	"1"	"1"	"1"	"1"	"1"	"1"	"1"	"1"	"1"	"1"	"1"	"1"	"1"	"1"	"1"	"1"	"1"	"1"	"1"	"1"	"1"	"1"	"1"	"1"	"1"	"1"	"1"	"1"	"1"	"1"	"1"	"1"	"1"	"1"	"1"	"1"	"1"	"1"	"1"	"1"	"1"	"1"	"1"	"1"	"1"	"1"	"1"	"1"	""	""	""	""	""	""	""	""	""	""	""	""	""	""	""	""	""	""	""	""	""	""	""	""	""	""	""	""	""	""	""	""	NA	NA	NA	633	NA	0	0	5000	0	5000	"sol-ichart-vanilla1-n41"	"./"	"yes"	NA	"adult"	"yes"	"no"	"C-T"	"Adults"	"1"	2	2	633	2	94	633	1	94	6.46052631578947
"30005"	"V1"	575	"M"	"sol-inc-1-prime-nounon"	6	""	"redsockR.pct"	""	"redcup.pct"	"r"	"redcup.pct"	"Vanilla"	"D"	2	633	3594	8000	"0.5"	"0.5"	"0.5"	"0.5"	"0.5"	"0.5"	"0.5"	"0.5"	"0.5"	"0.5"	"0.5"	"0.5"	"0.5"	"0.5"	"0.5"	"0.5"	"0.5"	"0.5"	"0.5"	"."	"."	"1"	"1"	"1"	"1"	"1"	"1"	"1"	"1"	"1"	"1"	"1"	"1"	"1"	"1"	"1"	"1"	"1"	"1"	"1"	"1"	"1"	"1"	"1"	"1"	"1"	"1"	"1"	"1"	"1"	"1"	"1"	"1"	"1"	"1"	"1"	"1"	"1"	"1"	"1"	"1"	"1"	"1"	"1"	"1"	"1"	"1"	"1"	"1"	"1"	"1"	"1"	"1"	"1"	"1"	"1"	"1"	"1"	"1"	"1"	"1"	"1"	"1"	"1"	"1"	"1"	"1"	"1"	"1"	"1"	"1"	"1"	"1"	"1"	"1"	"1"	"1"	"1"	"1"	"1"	"1"	"1"	"1"	"1"	"1"	"1"	"1"	"1"	"1"	"1"	"1"	"1"	"1"	"1"	"1"	"1"	"1"	"1"	"1"	"1"	"1"	"1"	"1"	"1"	"1"	"1"	"1"	"1"	"1"	"1"	"1"	"1"	"1"	"1"	"1"	"1"	"1"	"1"	"1"	"1"	"1"	"1"	"1"	"1"	"1"	"1"	"1"	NA	NA	NA	633	NA	0	0	5000	0	5000	"sol-ichart-vanilla1-n41"	"./"	"yes"	NA	"adult"	"yes"	"no"	"C-T"	"Adults"	"1"	2	2	633	2	126	633	1	126	5.26369863013699
"30005"	"V1"	575	"M"	"sol-inc-1-prime-nounon"	7	""	"juice2.pct"	""	"cookie2.pct"	"r"	"cookie2.pct"	"Vanilla"	"D"	1	533	2429	8000	"0.5"	"0.5"	"0.5"	"0.5"	"0.5"	"0.5"	"0.5"	"0.5"	"0.5"	"0.5"	"0.5"	"0.5"	"0.5"	"0.5"	"0.5"	"0.5"	"."	"1"	"1"	"1"	"1"	"1"	"1"	"1"	"1"	"1"	"1"	"1"	"1"	"1"	"1"	"1"	"1"	"1"	"1"	"1"	"1"	"1"	"1"	"1"	"1"	"1"	"1"	"1"	"1"	"1"	"1"	"1"	"1"	"1"	"1"	"1"	"1"	"1"	"1"	"1"	"1"	"1"	"1"	"1"	"1"	"1"	"1"	"1"	"1"	"1"	"1"	"1"	"1"	"1"	"1"	"1"	"1"	"1"	"1"	"1"	"1"	"1"	"1"	"1"	"1"	"1"	"1"	"1"	"1"	"1"	"1"	"1"	"1"	"1"	"1"	"1"	"1"	"."	"0.5"	"0.5"	"0.5"	"0.5"	"0.5"	"0.5"	"0.5"	"0.5"	"0.5"	"0.5"	"0.5"	"0.5"	"0.5"	"0.5"	"0.5"	"0.5"	"0.5"	"0.5"	"0.5"	"0.5"	""	""	""	""	""	""	""	""	""	""	""	""	""	""	""	""	""	""	""	""	""	""	""	""	""	""	""	""	""	""	""	""	""	NA	NA	NA	533	NA	0	0	5000	0	5000	"sol-ichart-vanilla1-n41"	"./"	"yes"	NA	"adult"	"yes"	"no"	"C-T"	"Adults"	"1"	1	2	533	1	76	533	2	76	5.54867256637168
"30005"	"V1"	575	"M"	"sol-inc-1-prime-nounon"	8	""	"blueball.jpg"	""	"blueshoeL.pct"	"l"	"blueball.jpg"	"Vanilla"	"D"	2	633	3066	8000	"0.5"	"0.5"	"0.5"	"0.5"	"0.5"	"0.5"	"0.5"	"0.5"	"0.5"	"0.5"	"0.5"	"0.5"	"0.5"	"0.5"	"0.5"	"0.5"	"0.5"	"0.5"	"0.5"	"."	"."	"1"	"1"	"1"	"1"	"1"	"1"	"1"	"1"	"1"	"1"	"1"	"1"	"1"	"1"	"1"	"1"	"1"	"1"	"1"	"1"	"1"	"1"	"1"	"1"	"1"	"1"	"1"	"1"	"1"	"1"	"1"	"1"	"1"	"1"	"1"	"1"	"1"	"1"	"1"	"1"	"1"	"1"	"1"	"1"	"1"	"1"	"1"	"1"	"1"	"1"	"1"	"1"	"1"	"1"	"1"	"1"	"1"	"1"	"1"	"1"	"1"	"1"	"1"	"1"	"1"	"1"	"1"	"1"	"1"	"1"	"1"	"1"	"1"	"1"	"1"	"1"	"1"	"1"	"1"	"1"	"1"	"1"	"1"	"1"	"1"	"1"	"1"	"1"	"1"	"1"	"1"	"1"	"1"	"1"	"1"	"1"	""	""	""	""	""	""	""	""	""	""	""	""	""	""	""	""	""	""	""	""	""	""	""	""	""	""	""	""	""	""	NA	NA	NA	633	NA	0	0	5000	0	5000	"sol-ichart-vanilla1-n41"	"./"	"yes"	NA	"adult"	"yes"	"no"	"C-T"	"Adults"	"1"	2	2	633	2	96	633	1	96	6.36637931034483
"30005"	"V1"	575	"M"	"sol-inc-1-prime-nounon"	9	""	"kitty2R.pct"	""	"birdy1L.pct"	"r"	"birdy1L.pct"	"Vanilla"	"D"	2	700	2000	8000	"0.5"	"0.5"	"0.5"	"0.5"	"0.5"	"0.5"	"0.5"	"0.5"	"0.5"	"0.5"	"0.5"	"0.5"	"0.5"	"0.5"	"0.5"	"0.5"	"0.5"	"0.5"	"0.5"	"0.5"	"0.5"	"."	"."	"1"	"1"	"1"	"1"	"1"	"1"	"1"	"1"	"1"	"1"	"1"	"1"	"1"	"1"	"1"	"1"	"1"	"1"	"1"	"1"	"1"	"1"	"1"	"1"	"1"	"1"	"1"	"1"	"1"	"1"	"1"	"1"	"1"	"1"	"1"	"1"	"1"	"1"	"1"	"1"	"1"	"1"	"1"	"1"	"1"	"1"	"1"	"1"	"1"	"1"	"1"	"1"	"1"	"1"	"1"	"1"	"1"	"1"	"1"	"1"	"1"	"1"	"1"	"1"	"1"	"1"	"1"	"1"	"1"	"1"	"1"	"1"	"1"	"1"	""	""	""	""	""	""	""	""	""	""	""	""	""	""	""	""	""	""	""	""	""	""	""	""	""	""	""	""	""	""	""	""	""	""	""	""	""	""	""	""	""	""	""	""	""	""	""	""	""	""	NA	NA	NA	700	NA	0	0	5000	0	5000	"sol-ichart-vanilla1-n41"	"./"	"yes"	NA	"adult"	"yes"	"no"	"C-T"	"Adults"	"1"	2	2	700	2	74	700	1	74	8.171875
"30005"	"V1"	575	"M"	"sol-inc-1-prime-nounon"	10	""	"bluesockR.pct"	""	"redcup.pct"	"l"	"bluesockR.pct"	"Vanilla"	"D"	2	400	3561	8000	"0.5"	"0.5"	"0.5"	"0.5"	"0.5"	"0.5"	"0.5"	"0.5"	"0.5"	"0.5"	"0.5"	"0.5"	"."	"."	"1"	"1"	"1"	"1"	"1"	"1"	"1"	"1"	"1"	"1"	"1"	"1"	"1"	"1"	"1"	"1"	"1"	"1"	"1"	"1"	"1"	"1"	"1"	"1"	"1"	"1"	"1"	"1"	"1"	"1"	"1"	"1"	"1"	"1"	"1"	"1"	"1"	"1"	"1"	"1"	"1"	"1"	"1"	"1"	"1"	"1"	"1"	"1"	"1"	"1"	"1"	"1"	"1"	"1"	"1"	"1"	"1"	"1"	"1"	"1"	"1"	"1"	"1"	"1"	"1"	"1"	"1"	"1"	"1"	"1"	"1"	"1"	"1"	"1"	"1"	"1"	"1"	"1"	"1"	"1"	"1"	"1"	"1"	"1"	"1"	"1"	"1"	"1"	"1"	"1"	"1"	"1"	"1"	"1"	"1"	"1"	"1"	"1"	"1"	"1"	"1"	"1"	"1"	"1"	"1"	"1"	"1"	"1"	""	""	""	""	""	""	""	""	""	""	""	""	""	""	""	""	""	""	""	""	""	""	""	""	""	NA	NA	NA	400	NA	0	0	5000	0	5000	"sol-ichart-vanilla1-n41"	"./"	"yes"	NA	"adult"	"yes"	"no"	"C-T"	"Adults"	"1"	2	2	400	2	108	400	1	108	4.24793388429752
"30005"	"V1"	575	"M"	"sol-inc-1-prime-nounon"	11	""	"juice3.pct"	""	"cookie3.pct"	"l"	"juice3.pct"	"Vanilla"	"D"	2	733	2330	8000	"0.5"	"0.5"	"0.5"	"0.5"	"0.5"	"0.5"	"0.5"	"0.5"	"0.5"	"0.5"	"0.5"	"0.5"	"0.5"	"0.5"	"0.5"	"0.5"	"0.5"	"0.5"	"0.5"	"0.5"	"0.5"	"0.5"	"."	"."	"1"	"1"	"1"	"1"	"1"	"1"	"1"	"1"	"1"	"1"	"1"	"1"	"1"	"1"	"1"	"1"	"1"	"1"	"1"	"1"	"1"	"1"	"1"	"1"	"1"	"1"	"1"	"1"	"1"	"1"	"1"	"1"	"1"	"1"	"1"	"1"	"1"	"1"	"1"	"1"	"1"	"1"	"1"	"1"	"1"	"1"	"1"	"1"	"1"	"1"	"1"	"1"	"1"	"1"	"1"	"1"	"1"	"1"	"1"	"1"	"1"	"1"	"1"	"1"	"1"	"1"	""	""	""	""	""	""	""	""	""	""	""	""	""	""	""	""	""	""	""	""	""	""	""	""	""	""	""	""	""	""	""	""	""	""	""	""	""	""	""	""	""	""	""	""	""	""	""	""	""	""	""	""	""	""	""	""	""	NA	NA	NA	733	NA	0	0	5000	0	5000	"sol-ichart-vanilla1-n41"	"./"	"yes"	NA	"adult"	"yes"	"no"	"C-T"	"Adults"	"1"	2	2	733	2	66	733	1	66	9.10112359550562
"30005"	"V1"	575	"M"	"sol-inc-1-prime-nounon"	32	""	"cookie3.pct"	""	"juice3.pct"	"l"	"cookie3.pct"	"Vanilla"	"D"	6	667	2330	8000	"0.5"	"0.5"	"0.5"	"0.5"	"0.5"	"0.5"	"0.5"	"0.5"	"0.5"	"0.5"	"0.5"	"0.5"	"0.5"	"0.5"	"0.5"	"0.5"	"0.5"	"0.5"	"0.5"	"0.5"	"."	"."	"."	"."	"."	"."	"1"	"1"	"1"	"1"	"1"	"1"	"1"	"1"	"1"	"1"	"1"	"1"	"1"	"1"	"1"	"1"	"1"	"1"	"1"	"1"	"1"	"1"	"1"	"1"	"1"	"1"	"1"	"1"	"1"	"1"	"1"	"1"	"1"	"1"	"1"	"1"	"1"	"1"	"1"	"1"	"1"	"1"	"1"	"1"	"1"	"1"	"1"	"1"	"1"	"1"	"1"	"1"	"1"	"1"	"1"	"1"	"1"	"1"	"1"	"1"	"1"	"1"	"1"	"1"	"1"	"1"	"1"	"1"	"1"	"1"	"1"	"1"	"1"	"1"	"1"	"1"	"1"	"1"	"1"	"1"	"1"	"1"	"1"	"1"	"1"	"1"	"1"	"1"	"1"	"1"	"1"	""	""	""	""	""	""	""	""	""	""	""	""	""	""	""	""	""	""	""	""	""	""	""	""	""	""	""	""	""	""	NA	NA	NA	667	NA	0	0	5000	0	5000	"sol-ichart-vanilla1-n41"	"./"	"yes"	NA	"adult"	"yes"	"no"	"C-T"	"Adults"	"1"	6	6	667	6	91	667	1	91	6.85714285714286
"30005"	"V1"	575	"M"	"sol-inc-1-prime-nounon"	33	""	"redshoeR.pct"	""	"blueball.pct"	"r"	"blueball.pct"	"Vanilla"	"D"	2	700	3066	8000	"0.5"	"0.5"	"0.5"	"0.5"	"0.5"	"0.5"	"0.5"	"0.5"	"0.5"	"0.5"	"0.5"	"0.5"	"0.5"	"0.5"	"0.5"	"0.5"	"0.5"	"0.5"	"0.5"	"0.5"	"0.5"	"."	"."	"1"	"1"	"1"	"1"	"1"	"1"	"1"	"1"	"1"	"1"	"1"	"1"	"1"	"1"	"1"	"1"	"1"	"1"	"1"	"1"	"1"	"1"	"1"	"1"	"1"	"1"	"1"	"1"	"1"	"1"	"1"	"1"	"1"	"1"	"1"	"."	"."	"0.5"	"0.5"	"0.5"	"0.5"	"0.5"	"0.5"	"0.5"	"0.5"	"0.5"	"0.5"	"0.5"	"0.5"	"0.5"	"0.5"	"0.5"	"0.5"	"0.5"	"0.5"	"0.5"	"0.5"	"0.5"	"0.5"	"0.5"	"0.5"	"0.5"	"0.5"	"0.5"	"0.5"	"0.5"	"0.5"	"0.5"	"0.5"	"0.5"	"0.5"	"0.5"	"0.5"	"0.5"	"0.5"	"0.5"	"0.5"	"0.5"	"0.5"	"0.5"	"0.5"	"0.5"	"0.5"	"0.5"	"0.5"	"0.5"	"0.5"	"0.5"	"0.5"	"0.5"	"0.5"	"0.5"	"0.5"	"0.5"	""	""	""	""	""	""	""	""	""	""	""	""	""	""	""	""	""	""	""	""	""	""	""	""	""	""	""	""	""	""	NA	NA	NA	700	NA	0	0	5000	0	5000	"sol-ichart-vanilla1-n41"	"./"	"yes"	NA	"adult"	"yes"	"no"	"C-T"	"Adults"	"1"	2	4	700	2	35	700	2	35	6.78947368421053
"30005"	"V1"	575	"M"	"sol-inc-1-prime-nounon"	34	""	"redball.pct"	""	"blueshoeL.pct"	"r"	"blueshoeL.pct"	"Vanilla"	"D"	2	867	2825	8000	"0.5"	"0.5"	"0.5"	"0.5"	"0.5"	"0.5"	"0.5"	"0.5"	"0.5"	"0.5"	"0.5"	"0.5"	"0.5"	"0.5"	"0.5"	"0.5"	"0.5"	"0.5"	"0.5"	"0.5"	"0.5"	"0.5"	"0.5"	"0.5"	"0.5"	"0.5"	"."	"."	"1"	"1"	"1"	"1"	"1"	"1"	"1"	"1"	"1"	"1"	"1"	"1"	"1"	"1"	"1"	"1"	"1"	"1"	"1"	"1"	"1"	"1"	"1"	"1"	"1"	"1"	"1"	"1"	"1"	"1"	"1"	"1"	"1"	"1"	"1"	"1"	"1"	"1"	"1"	"1"	"1"	"1"	"1"	"1"	"1"	"1"	"1"	"1"	"1"	"1"	"1"	"1"	"1"	"1"	"1"	"1"	"1"	"1"	"."	"."	"."	"."	"."	"0.5"	"0.5"	"0.5"	"0.5"	"0.5"	"0.5"	"0.5"	"0.5"	"0.5"	"0.5"	"0.5"	"0.5"	"0.5"	"0.5"	"0.5"	"0.5"	"0.5"	"0.5"	"0.5"	"0.5"	"0.5"	"0.5"	"0.5"	"0.5"	"0.5"	"0.5"	"0.5"	"0.5"	"0.5"	"0.5"	"0.5"	""	""	""	""	""	""	""	""	""	""	""	""	""	""	""	""	""	""	""	""	""	""	""	""	""	NA	NA	NA	867	NA	0	0	5000	0	5000	"sol-ichart-vanilla1-n41"	"./"	"yes"	NA	"adult"	"yes"	"no"	"C-T"	"Adults"	"1"	5	7	2867	2	58	867	2	58	8.2198275862069
"30005"	"V1"	575	"M"	"sol-inc-1-prime-nounon"	35	""	"doll4L.pct"	""	"teddy3.pct"	"r"	"teddy3.pct"	"Vanilla"	"D"	2	1133	2099	8000	"0.5"	"0.5"	"0.5"	"0.5"	"0.5"	"0.5"	"0.5"	"0.5"	"0.5"	"0.5"	"0.5"	"0.5"	"0.5"	"0.5"	"0.5"	"0.5"	"0.5"	"0.5"	"0.5"	"0.5"	"0.5"	"0.5"	"0.5"	"0.5"	"0.5"	"0.5"	"0.5"	"0.5"	"0.5"	"0.5"	"0.5"	"0.5"	"0.5"	"0.5"	"."	"."	"1"	"1"	"1"	"1"	"1"	"1"	"1"	"1"	"1"	"1"	"1"	"1"	"1"	"1"	"1"	"1"	"1"	"1"	"1"	"1"	"1"	"1"	"1"	"1"	"1"	"1"	"1"	"1"	"1"	"1"	"1"	"1"	"1"	"1"	"1"	"1"	"1"	"1"	"1"	"1"	"1"	"1"	"1"	"1"	"1"	"1"	"1"	"1"	"1"	"1"	"1"	"1"	"1"	"1"	"1"	"1"	"1"	"1"	"1"	"1"	"1"	"1"	"1"	"1"	"1"	"1"	"1"	"1"	"1"	"1"	"1"	"1"	"1"	"1"	"1"	"1"	"1"	"1"	"1"	"1"	"1"	"1"	"1"	"1"	"1"	"1"	""	""	""	""	""	""	""	""	""	""	""	""	""	""	""	""	""	""	""	""	""	""	""	""	""	NA	NA	NA	1133	NA	0	0	5000	0	5000	"sol-ichart-vanilla1-n41"	"./"	"yes"	NA	"adult"	"yes"	"no"	"C-T"	"Adults"	"1"	2	2	1133	2	86	1133	1	86	10.2148760330579
"30005"	"V1"	575	"M"	"sol-inc-1-prime-nounon"	36	""	"redsockR.pct"	""	"redcup.pct"	"l"	"redsockR.pct"	"Vanilla"	"D"	3	367	3165	8000	"0.5"	"0.5"	"0.5"	"0.5"	"0.5"	"0.5"	"0.5"	"0.5"	"0.5"	"0.5"	"0.5"	"."	"."	"."	"1"	"1"	"1"	"1"	"1"	"1"	"1"	"1"	"1"	"1"	"1"	"1"	"1"	"1"	"1"	"1"	"1"	"1"	"1"	"1"	"1"	"1"	"1"	"1"	"1"	"1"	"1"	"1"	"1"	"1"	"1"	"1"	"1"	"."	"."	"."	"."	"."	"0.5"	"0.5"	"0.5"	"0.5"	"0.5"	"0.5"	"0.5"	"0.5"	"0.5"	"0.5"	"0.5"	"0.5"	"0.5"	"0.5"	"0.5"	"0.5"	"0.5"	"0.5"	"0.5"	"0.5"	"0.5"	"0.5"	"0.5"	"0.5"	"0.5"	"0.5"	"0.5"	"0.5"	"0.5"	"0.5"	"0.5"	"0.5"	"0.5"	"0.5"	"0.5"	"0.5"	"0.5"	"0.5"	"0.5"	"0.5"	"0.5"	"0.5"	"0.5"	"0.5"	"0.5"	"0.5"	"0.5"	"0.5"	"0.5"	"0.5"	"0.5"	"0.5"	"0.5"	"0.5"	"0.5"	"0.5"	"0.5"	"0.5"	"0.5"	"0.5"	"0.5"	""	""	""	""	""	""	""	""	""	""	""	""	""	""	""	""	""	""	""	""	""	""	""	""	""	""	""	""	""	""	""	""	""	""	NA	NA	NA	367	NA	0	0	5000	0	5000	"sol-ichart-vanilla1-n41"	"./"	"yes"	NA	"adult"	"yes"	"no"	"C-T"	"Adults"	"1"	5	8	1567	3	33	367	2	33	4.11320754716981
"30005"	"V1"	575	"M"	"sol-inc-1-prime-nounon"	23	""	"birdy3R.pct"	""	"kitty2L.pct"	"l"	"birdy3R.pct"	"Vanilla"	"D"	2	700	1957	8000	"0.5"	"0.5"	"0.5"	"0.5"	"0.5"	"0.5"	"0.5"	"0.5"	"0.5"	"0.5"	"0.5"	"0.5"	"0.5"	"0.5"	"0.5"	"0.5"	"0.5"	"0.5"	"0.5"	"0.5"	"0.5"	"."	"."	"1"	"1"	"1"	"1"	"1"	"1"	"1"	"1"	"1"	"1"	"1"	"1"	"1"	"1"	"1"	"1"	"1"	"1"	"1"	"1"	"1"	"1"	"1"	"1"	"1"	"1"	"1"	"1"	"1"	"1"	"1"	"1"	"1"	"1"	"1"	"1"	"1"	"1"	"1"	"1"	"1"	"1"	"1"	"1"	"1"	"1"	"1"	"1"	"1"	"1"	"1"	"1"	"1"	"1"	"1"	"1"	"1"	"1"	"1"	"1"	"1"	"1"	"1"	"1"	"1"	"1"	"1"	"1"	"1"	"1"	"1"	"1"	""	""	""	""	""	""	""	""	""	""	""	""	""	""	""	""	""	""	""	""	""	""	""	""	""	""	""	""	""	""	""	""	""	""	""	""	""	""	""	""	""	""	""	""	""	""	""	""	""	""	""	""	NA	NA	NA	700	NA	0	0	5000	0	5000	"sol-ichart-vanilla1-n41"	"./"	"yes"	NA	"adult"	"yes"	"no"	"C-T"	"Adults"	"1"	2	2	700	2	72	700	1	72	8.32446808510638
"30005"	"V1"	575	"M"	"sol-inc-1-prime-nounon"	38	""	"redshoeR.pct"	""	"blueball.pct"	"l"	"redshoeR.pct"	"Vanilla"	"D"	2	367	3231	8000	"0.5"	"0.5"	"0.5"	"0.5"	"0.5"	"0.5"	"0.5"	"0.5"	"0.5"	"0.5"	"0.5"	"."	"."	"1"	"1"	"1"	"1"	"1"	"1"	"1"	"1"	"1"	"1"	"1"	"1"	"1"	"1"	"1"	"1"	"1"	"1"	"1"	"1"	"1"	"1"	"1"	"1"	"1"	"1"	"1"	"1"	"1"	"1"	"1"	"1"	"1"	"1"	"1"	"1"	"1"	"1"	"1"	"1"	"1"	"1"	"1"	"1"	"1"	"1"	"1"	"1"	"1"	"1"	"1"	"1"	"1"	"1"	"1"	"1"	"1"	"1"	"1"	"1"	"1"	"1"	"1"	"1"	"1"	"1"	"1"	"1"	"1"	"1"	"1"	"1"	"1"	"1"	"1"	"1"	"1"	"1"	"1"	"1"	"1"	"1"	"1"	"1"	"1"	"1"	"1"	"1"	"1"	"1"	"1"	"1"	"1"	"1"	"1"	"1"	"1"	"1"	""	""	""	""	""	""	""	""	""	""	""	""	""	""	""	""	""	""	""	""	""	""	""	""	""	""	""	""	""	""	""	""	""	""	""	""	NA	NA	NA	367	NA	0	0	5000	0	5000	"sol-ichart-vanilla1-n41"	"./"	"yes"	NA	"adult"	"yes"	"no"	"C-T"	"Adults"	"1"	2	2	367	2	98	367	1	98	4.27727272727273
"30005"	"V1"	575	"M"	"sol-inc-1-prime-nounon"	39	""	"cookie3.pct"	""	"juice3.pct"	"r"	"juice3.pct"	"Vanilla"	"D"	3	700	2165	8000	"0.5"	"0.5"	"0.5"	"0.5"	"0.5"	"0.5"	"0.5"	"0.5"	"0.5"	"0.5"	"0.5"	"0.5"	"0.5"	"0.5"	"0.5"	"0.5"	"0.5"	"0.5"	"0.5"	"0.5"	"0.5"	"."	"."	"."	"1"	"1"	"1"	"1"	"1"	"1"	"1"	"1"	"1"	"1"	"1"	"1"	"1"	"1"	"1"	"1"	"1"	"1"	"1"	"1"	"1"	"."	"."	"."	"."	"."	"."	"."	"."	"."	"."	"."	"."	"."	"."	"."	"."	"."	"."	"."	"."	"."	"."	"."	"."	"."	"."	"."	"."	"."	"."	"."	"."	"."	"."	"."	"."	"."	"."	"."	"."	"."	"."	"."	"."	"."	"."	"."	"."	"."	"."	"."	"."	"."	"."	"."	"."	"."	"."	"."	"."	"."	"."	"."	"."	"."	""	""	""	""	""	""	""	""	""	""	""	""	""	""	""	""	""	""	""	""	""	""	""	""	""	""	""	""	""	""	""	""	""	""	""	""	""	NA	NA	NA	700	NA	0	0	5000	0	5000	"sol-ichart-vanilla1-n41"	"./"	"yes"	NA	"adult"	"yes"	"no"	"C-T"	"Adults"	"1"	65	68	1500	3	21	700	2	21	17.0116279069767
"30005"	"V1"	575	"M"	"sol-inc-1-prime-nounon"	37	""	"kitty4R.pct"	""	"birdy4L.pct"	"l"	"kitty4R.pct"	"Vanilla"	"D"	2	533	3132	8000	"0.5"	"0.5"	"0.5"	"0.5"	"0.5"	"0.5"	"0.5"	"0.5"	"0.5"	"0.5"	"0.5"	"0.5"	"0.5"	"0.5"	"0.5"	"0.5"	"."	"."	"0"	"0"	"0"	"0"	"0"	"."	"."	"1"	"1"	"1"	"1"	"1"	"1"	"1"	"1"	"1"	"1"	"1"	"1"	"1"	"1"	"1"	"1"	"1"	"1"	"1"	"1"	"1"	"1"	"1"	"1"	"1"	"1"	"1"	"1"	"1"	"1"	"1"	"1"	"1"	"1"	"1"	"1"	"1"	"1"	"1"	"1"	"1"	"1"	"1"	"1"	"1"	"1"	"1"	"1"	"1"	"1"	"1"	"1"	"1"	"1"	"1"	"1"	"1"	"1"	"1"	"1"	"1"	"1"	"1"	"1"	"1"	"1"	"1"	"1"	"1"	"1"	"1"	"1"	"1"	"1"	"1"	"1"	"1"	"1"	"1"	"1"	"1"	"1"	"1"	"1"	"1"	"1"	"1"	"1"	"1"	"1"	"1"	"1"	"1"	"1"	"1"	"1"	"1"	"1"	"1"	"1"	"1"	"1"	"1"	"1"	"1"	"1"	"1"	"1"	"1"	""	""	""	""	""	""	""	""	""	""	""	""	""	NA	NA	NA	533	NA	0	0	5000	0	5000	"sol-ichart-vanilla1-n41"	"./"	"yes"	NA	"adult"	"yes"	"no"	"C-D"	"Adults"	"1"	2	4	533	2	109	767	2	5	4.9618320610687
"30006"	"V1"	575	"F"	"sol-inc-2-nounon"	17	""	"kitty2R.pct"	"sign.pct"	"birdy2L.pct"	"l"	"kitty2R.pct"	"Vanilla"	"D"	6	2633	2297	6000	"0.5"	"0.5"	"0.5"	"0.5"	"0.5"	"0.5"	"0.5"	"0.5"	"0.5"	"0.5"	"0.5"	"0.5"	"0.5"	"0.5"	"0.5"	"0.5"	"0.5"	"0.5"	"0.5"	"0.5"	"0.5"	"0.5"	"0.5"	"0.5"	"0.5"	"0.5"	"0.5"	"0.5"	"0.5"	"0.5"	"0.5"	"0.5"	"0.5"	"0.5"	"0.5"	"0.5"	"0.5"	"0.5"	"0.5"	"0.5"	"0.5"	"0.5"	"0.5"	"0.5"	"0.5"	"0.5"	"0.5"	"0.5"	"0.5"	"0.5"	"0.5"	"0.5"	"0.5"	"0.5"	"0.5"	"0.5"	"0.5"	"0.5"	"0.5"	"0.5"	"0.5"	"0.5"	"0.5"	"0.5"	"0.5"	"0.5"	"0.5"	"0.5"	"0.5"	"0.5"	"0.5"	"0.5"	"0.5"	"0.5"	"0.5"	"0.5"	"0.5"	"0.5"	"0.5"	"."	"."	"."	"."	"."	"."	"1"	"1"	"1"	"1"	"1"	"1"	"1"	"1"	"1"	"1"	"1"	"1"	"1"	"1"	"1"	"1"	"1"	"1"	"1"	"1"	"1"	"1"	"1"	"1"	"1"	"1"	"1"	"1"	"1"	"1"	"1"	"1"	"1"	"1"	"1"	"1"	"1"	"1"	"1"	"1"	"1"	"1"	"1"	"1"	"1"	"1"	"1"	"1"	"1"	"1"	""	""	""	""	""	""	""	""	""	""	""	""	NA	NA	NA	2633	NA	0	0	5000	0	5000	"sol-ichart-vanilla1-n41"	"./"	"yes"	NA	"adult"	"yes"	"no"	"C-T"	"Adults"	"1"	6	6	2633	6	50	2633	1	50	20.9423076923077
"30006"	"V1"	575	"F"	"sol-inc-2-nounon"	19	""	"blueshoeR.pct"	"sign.pct"	"blueball.pct"	"l"	"blueshoeR.pct"	"Vanilla"	"D"	8	1000	2825	6000	"0.5"	"0.5"	"0.5"	"0.5"	"0.5"	"0.5"	"0.5"	"0.5"	"0.5"	"0.5"	"0.5"	"0.5"	"0.5"	"0.5"	"0.5"	"0.5"	"0.5"	"0.5"	"0.5"	"0.5"	"0.5"	"0.5"	"0.5"	"0.5"	"0.5"	"0.5"	"0.5"	"0.5"	"0.5"	"0.5"	"."	"."	"."	"."	"."	"."	"."	"."	"1"	"1"	"1"	"1"	"1"	"1"	"1"	"1"	"1"	"1"	"1"	"1"	"1"	"1"	"1"	"1"	"1"	"1"	"1"	"1"	"1"	"1"	"1"	"1"	"1"	"1"	"1"	"1"	"1"	"1"	"1"	"1"	"1"	"."	"."	"0.5"	"0.5"	"0.5"	"0.5"	"0.5"	"0.5"	"0.5"	"0.5"	"0.5"	"0.5"	"0.5"	"0.5"	"0.5"	"0.5"	"0.5"	"0.5"	"0.5"	"0.5"	"0.5"	"0.5"	"0.5"	"0.5"	"0.5"	"0.5"	"0.5"	"0.5"	"0.5"	"0.5"	"0.5"	"0.5"	"0.5"	"0.5"	"0.5"	"0.5"	"0.5"	"0.5"	"0.5"	"0.5"	"0.5"	"0.5"	"0.5"	"0.5"	"0.5"	"0.5"	"0.5"	"0.5"	"0.5"	"0.5"	"0.5"	"0.5"	"0.5"	""	""	""	""	""	""	""	""	""	""	""	""	""	""	""	""	""	""	""	""	""	""	""	NA	NA	NA	1000	NA	0	0	5000	0	5000	"sol-ichart-vanilla1-n41"	"./"	"yes"	NA	"adult"	"yes"	"no"	"C-T"	"Adults"	"1"	8	10	1000	8	33	1000	2	33	9.33478260869565
"30006"	"V1"	575	"F"	"sol-inc-2-nounon"	21	""	"doll2R.pct"	"sign.pct"	"teddy2.pct"	"r"	"teddy2.pct"	"Vanilla"	"D"	6	1067	2099	6000	"0.5"	"0.5"	"0.5"	"0.5"	"0.5"	"0.5"	"0.5"	"0.5"	"0.5"	"0.5"	"0.5"	"0.5"	"0.5"	"0.5"	"0.5"	"0.5"	"0.5"	"0.5"	"0.5"	"0.5"	"0.5"	"0.5"	"0.5"	"0.5"	"0.5"	"0.5"	"0.5"	"0.5"	"0.5"	"0.5"	"0.5"	"0.5"	"."	"."	"."	"."	"."	"."	"1"	"1"	"1"	"1"	"1"	"1"	"1"	"1"	"1"	"1"	"1"	"1"	"1"	"1"	"1"	"1"	"1"	"1"	"1"	"1"	"1"	"."	"."	"."	"."	"."	"0"	"0"	"0"	"0"	"0"	"0"	"0"	"0"	"0"	"0"	"0"	"0"	"0"	"0"	"0"	"0"	"0"	"0"	"0"	"0"	"0"	"."	"."	"."	"."	"."	"."	"."	"."	"."	"."	"1"	"1"	"1"	"1"	"1"	"1"	"1"	"1"	"1"	"1"	"1"	"1"	"1"	"1"	"1"	"1"	"1"	"1"	"1"	"."	"."	"0"	"0"	"0"	"0"	"0"	"0"	"0"	""	""	""	""	""	""	""	""	""	""	""	""	""	""	""	""	""	""	""	""	""	""	""	""	NA	NA	NA	1067	NA	0	0	5000	0	5000	"sol-ichart-vanilla1-n41"	"./"	"yes"	NA	"adult"	"yes"	"no"	"C-T"	"Adults"	"1"	10	23	2833	6	21	1067	4	21	11.1188118811881
"30006"	"V1"	575	"F"	"sol-inc-2-nounon"	30	""	"juice1.pct"	"sign.pct"	"cookie1.pct"	"r"	"cookie1.pct"	"Vanilla"	"D"	18	767	2429	6000	"0.5"	"0.5"	"0.5"	"0.5"	"0.5"	"0.5"	"0.5"	"0.5"	"0.5"	"0.5"	"0.5"	"0.5"	"0.5"	"0.5"	"0.5"	"0.5"	"0.5"	"0.5"	"0.5"	"0.5"	"0.5"	"0.5"	"0.5"	"."	"."	"."	"."	"."	"."	"."	"."	"."	"."	"."	"."	"."	"."	"."	"."	"."	"."	"1"	"1"	"1"	"1"	"1"	"1"	"1"	"1"	"1"	"1"	"1"	"1"	"1"	"1"	"1"	"1"	"1"	"1"	"1"	"1"	"1"	"1"	"1"	"1"	"1"	"1"	"."	"."	"."	"."	"."	"."	"."	"."	"."	"."	"."	"."	"."	"."	"."	"."	"."	"."	"."	"."	"."	"."	"."	"."	"."	"."	"."	"."	"."	"."	"."	"."	"."	"."	"."	"."	"."	"."	"."	"."	"."	"."	"."	"."	"."	"."	""	""	""	""	""	""	""	""	""	""	""	""	""	""	""	""	""	""	""	""	""	""	""	""	""	""	""	""	""	""	""	""	""	""	NA	NA	NA	767	NA	0	0	5000	0	5000	"sol-ichart-vanilla1-n41"	"./"	"yes"	NA	"adult"	"yes"	"no"	"C-T"	"Adults"	"1"	46	64	2233	18	26	767	2	26	16.09
"30006"	"V1"	575	"F"	"sol-inc-2-nounon"	32	""	"juice3.pct"	"sign.pct"	"cookie3.pct"	"r"	"cookie3.pct"	"Vanilla"	"D"	7	1867	2330	6000	"0.5"	"0.5"	"0.5"	"0.5"	"0.5"	"0.5"	"0.5"	"0.5"	"0.5"	"0.5"	"0.5"	"0.5"	"0.5"	"0.5"	"0.5"	"0.5"	"0.5"	"0.5"	"0.5"	"0.5"	"0.5"	"0.5"	"0.5"	"0.5"	"0.5"	"0.5"	"0.5"	"0.5"	"0.5"	"0.5"	"0.5"	"0.5"	"0.5"	"0.5"	"0.5"	"0.5"	"0.5"	"0.5"	"0.5"	"0.5"	"0.5"	"0.5"	"0.5"	"0.5"	"0.5"	"0.5"	"0.5"	"0.5"	"0.5"	"0.5"	"0.5"	"0.5"	"0.5"	"0.5"	"0.5"	"0.5"	"."	"."	"."	"."	"."	"."	"."	"1"	"1"	"1"	"1"	"1"	"1"	"1"	"1"	"1"	"1"	"1"	"1"	"1"	"1"	"1"	"1"	"1"	"."	"."	"0.5"	"0.5"	"0.5"	"0.5"	"0.5"	"0.5"	"0.5"	"0.5"	"0.5"	"0.5"	"0.5"	"0.5"	"0.5"	"0.5"	"0.5"	"0.5"	"0.5"	"0.5"	"0.5"	"0.5"	"0.5"	"0.5"	"0.5"	"0.5"	"0.5"	"0.5"	"0.5"	"0.5"	"0.5"	"0.5"	"0.5"	"0.5"	"0.5"	"0.5"	"0.5"	""	""	""	""	""	""	""	""	""	""	""	""	""	""	""	""	""	""	""	""	""	""	""	""	""	""	""	""	""	""	NA	NA	NA	1867	NA	0	0	5000	0	5000	"sol-ichart-vanilla1-n41"	"./"	"yes"	NA	"adult"	"yes"	"no"	"C-T"	"Adults"	"1"	7	9	1867	7	17	1867	2	17	17.7018348623853
"30006"	"V1"	575	"F"	"sol-inc-2-nounon"	20	""	"bluesockR.pct"	"sign.pct"	"bluecup.pct"	"l"	"bluesockR.pct"	"Vanilla"	"D"	8	3300	3561	6000	"0.5"	"0.5"	"0.5"	"0.5"	"0.5"	"0.5"	"0.5"	"0.5"	"0.5"	"0.5"	"0.5"	"0.5"	"0.5"	"0.5"	"0.5"	"0.5"	"0.5"	"0.5"	"0.5"	"0.5"	"0.5"	"0.5"	"0.5"	"0.5"	"0.5"	"0.5"	"0.5"	"0.5"	"0.5"	"0.5"	"0.5"	"0.5"	"0.5"	"0.5"	"0.5"	"0.5"	"0.5"	"0.5"	"0.5"	"0.5"	"0.5"	"0.5"	"0.5"	"0.5"	"0.5"	"0.5"	"0.5"	"0.5"	"0.5"	"0.5"	"0.5"	"0.5"	"0.5"	"0.5"	"0.5"	"0.5"	"0.5"	"0.5"	"0.5"	"0.5"	"0.5"	"0.5"	"0.5"	"0.5"	"0.5"	"0.5"	"0.5"	"0.5"	"0.5"	"0.5"	"0.5"	"0.5"	"0.5"	"0.5"	"0.5"	"0.5"	"0.5"	"0.5"	"0.5"	"0.5"	"0.5"	"0.5"	"0.5"	"0.5"	"0.5"	"0.5"	"0.5"	"0.5"	"0.5"	"0.5"	"0.5"	"0.5"	"0.5"	"0.5"	"0.5"	"0.5"	"0.5"	"0.5"	"0.5"	"."	"."	"."	"."	"."	"."	"."	"."	"1"	"1"	"1"	"1"	"1"	"1"	"1"	"1"	"1"	"1"	"1"	"1"	"1"	"1"	"1"	"1"	""	""	""	""	""	""	""	""	""	""	""	""	""	""	""	""	""	""	""	""	""	""	""	""	NA	NA	NA	3300	NA	0	0	5000	0	5000	"sol-ichart-vanilla1-n41"	"./"	"yes"	NA	"adult"	"yes"	"no"	"no-shift"	"Adults"	"1"	8	8	3300	8	16	3300	1	16	29.0129310344828
"30006"	"V1"	575	"F"	"sol-inc-2-nounon"	34	""	"blueshoeR.pct"	"sign.pct"	"redball.pct"	"l"	"blueshoeR.pct"	"Vanilla"	"D"	1	1700	2825	6000	"0.5"	"0.5"	"0.5"	"0.5"	"0.5"	"0.5"	"0.5"	"0.5"	"0.5"	"0.5"	"0.5"	"0.5"	"0.5"	"0.5"	"0.5"	"0.5"	"0.5"	"0.5"	"0.5"	"0.5"	"0.5"	"0.5"	"0.5"	"0.5"	"0.5"	"0.5"	"0.5"	"0.5"	"0.5"	"0.5"	"0.5"	"0.5"	"0.5"	"0.5"	"0.5"	"0.5"	"0.5"	"0.5"	"0.5"	"0.5"	"0.5"	"0.5"	"0.5"	"0.5"	"0.5"	"0.5"	"0.5"	"0.5"	"0.5"	"0.5"	"0.5"	"."	"1"	"1"	"1"	"1"	"1"	"1"	"1"	"1"	"1"	"1"	"1"	"1"	"1"	"1"	"1"	"1"	"1"	"1"	"1"	"1"	"1"	"1"	"1"	"1"	"1"	"1"	"1"	"1"	"1"	"1"	"1"	"1"	"1"	"1"	"1"	"."	"0.5"	"0.5"	"0.5"	"0.5"	"0.5"	"0.5"	"0.5"	"0.5"	"0.5"	"0.5"	"0.5"	"0.5"	"0.5"	"0.5"	"0.5"	"0.5"	"0.5"	"0.5"	"0.5"	"0.5"	"0.5"	"0.5"	"0.5"	"0.5"	"0.5"	"0.5"	"0.5"	"0.5"	"0.5"	"0.5"	"."	"1"	"1"	"1"	""	""	""	""	""	""	""	""	""	""	""	""	""	""	""	""	""	""	""	""	""	""	""	""	""	NA	NA	NA	1700	NA	0	0	5000	0	5000	"sol-ichart-vanilla1-n41"	"./"	"yes"	NA	"adult"	"yes"	"no"	"C-T"	"Adults"	"1"	2	3	3900	1	35	1700	2	35	14.8208333333333
"30006"	"V1"	575	"F"	"sol-inc-2-nounon"	35	""	"teddy3.pct"	"sign.pct"	"doll4L.pct"	"l"	"teddy3.pct"	"Vanilla"	"D"	9	1600	2099	6000	"0.5"	"0.5"	"0.5"	"0.5"	"0.5"	"0.5"	"0.5"	"0.5"	"0.5"	"0.5"	"0.5"	"0.5"	"0.5"	"0.5"	"0.5"	"0.5"	"0.5"	"0.5"	"0.5"	"0.5"	"0.5"	"0.5"	"0.5"	"0.5"	"0.5"	"0.5"	"0.5"	"0.5"	"0.5"	"0.5"	"0.5"	"0.5"	"0.5"	"0.5"	"0.5"	"0.5"	"0.5"	"0.5"	"0.5"	"0.5"	"0.5"	"0.5"	"0.5"	"0.5"	"0.5"	"0.5"	"0.5"	"0.5"	"."	"."	"."	"."	"."	"."	"."	"."	"."	"1"	"1"	"1"	"1"	"1"	"1"	"1"	"1"	"1"	"1"	"1"	"1"	"1"	"1"	"1"	"1"	"1"	"."	"."	"0.5"	"0.5"	"0.5"	"0.5"	"0.5"	"0.5"	"0.5"	"0.5"	"0.5"	"0.5"	"0.5"	"0.5"	"0.5"	"0.5"	"0.5"	"0.5"	"0.5"	"0.5"	"0.5"	"0.5"	"0.5"	"0.5"	"0.5"	"0.5"	"0.5"	"0.5"	"0.5"	"0.5"	"0.5"	"0.5"	"0.5"	"0.5"	"0.5"	"0.5"	"0.5"	"0.5"	"0.5"	"0.5"	"0.5"	"0.5"	"0.5"	"0.5"	"0.5"	"0.5"	"0.5"	"0.5"	""	""	""	""	""	""	""	""	""	""	""	""	""	""	""	""	""	""	""	""	""	""	""	""	""	NA	NA	NA	1600	NA	0	0	5000	0	5000	"sol-ichart-vanilla1-n41"	"./"	"yes"	NA	"adult"	"yes"	"no"	"C-T"	"Adults"	"1"	9	11	1600	9	17	1600	2	17	14.8571428571429
"30006"	"V1"	575	"F"	"sol-inc-2-nounon"	22	""	"juice1.pct"	"sign.pct"	"cookie1.pct"	"l"	"juice1.pct"	"Vanilla"	"D"	4	800	2165	6000	"0.5"	"0.5"	"0.5"	"0.5"	"0.5"	"0.5"	"0.5"	"0.5"	"0.5"	"0.5"	"0.5"	"0.5"	"0.5"	"0.5"	"0.5"	"0.5"	"0.5"	"0.5"	"0.5"	"0.5"	"0.5"	"0.5"	"0.5"	"0.5"	"."	"."	"."	"."	"1"	"1"	"1"	"1"	"1"	"1"	"1"	"1"	"1"	"1"	"1"	"1"	"1"	"1"	"1"	"1"	"1"	"1"	"1"	"1"	"1"	"1"	"1"	"1"	"1"	"1"	"1"	"1"	"1"	"1"	"1"	"1"	"."	"."	"0.5"	"0.5"	"0.5"	"0.5"	"0.5"	"0.5"	"0.5"	"0.5"	"0.5"	"0.5"	"0.5"	"0.5"	"0.5"	"0.5"	"0.5"	"0.5"	"0.5"	"0.5"	"0.5"	"0.5"	"0.5"	"0.5"	"0.5"	"0.5"	"0.5"	"0.5"	"0.5"	"0.5"	"0.5"	"0.5"	"0.5"	"0.5"	"0.5"	"0.5"	"0.5"	"0.5"	"0.5"	"0.5"	"0.5"	"0.5"	"0.5"	"0.5"	"0.5"	"0.5"	"0.5"	"0.5"	""	""	""	""	""	""	""	""	""	""	""	""	""	""	""	""	""	""	""	""	""	""	""	""	""	""	""	""	""	""	""	""	""	""	""	""	""	""	""	NA	NA	NA	800	NA	0	0	5000	0	5000	"sol-ichart-vanilla1-n41"	"./"	"yes"	NA	"adult"	"yes"	"no"	"C-T"	"Adults"	"1"	4	6	800	4	32	800	2	32	8.41747572815534
"30006"	"V1"	575	"F"	"sol-inc-2-nounon"	33	""	"blueball.pct"	"sign.pct"	"redshoeL.pct"	"l"	"blueball.pct"	"Vanilla"	"D"	7	1067	3066	6000	"0.5"	"0.5"	"0.5"	"0.5"	"0.5"	"0.5"	"0.5"	"0.5"	"0.5"	"0.5"	"0.5"	"0.5"	"0.5"	"0.5"	"0.5"	"0.5"	"0.5"	"0.5"	"0.5"	"0.5"	"0.5"	"0.5"	"0.5"	"0.5"	"0.5"	"0.5"	"0.5"	"0.5"	"0.5"	"0.5"	"0.5"	"0.5"	"."	"."	"."	"."	"."	"."	"."	"1"	"1"	"1"	"1"	"1"	"1"	"1"	"1"	"1"	"1"	"1"	"1"	"1"	"1"	"1"	"1"	"1"	"1"	"1"	"1"	"1"	"1"	"1"	"1"	"1"	"1"	"1"	"1"	"1"	"1"	"1"	"1"	"1"	"1"	"1"	"1"	"1"	"1"	"1"	"1"	"1"	"1"	"1"	"1"	"1"	"1"	"1"	"1"	"1"	"1"	"1"	"1"	"1"	"1"	"1"	"1"	"1"	"1"	"."	"."	"0"	"0"	"0"	"0"	"0"	"0"	"0"	"0"	"0"	"0"	"0"	"0"	"0"	"0"	"0"	"0"	"0"	""	""	""	""	""	""	""	""	""	""	""	""	""	""	""	""	""	""	""	""	""	""	""	""	""	""	""	""	""	""	""	NA	NA	NA	1067	NA	0	0	5000	0	5000	"sol-ichart-vanilla1-n41"	"./"	"yes"	NA	"adult"	"yes"	"no"	"C-T"	"Adults"	"1"	7	9	1067	7	58	1067	2	58	10.5648148148148
"30006"	"V1"	575	"F"	"sol-inc-2-nounon"	24	""	"redcup.pct"	"sign.pct"	"bluesockL.pct"	"l"	"redcup.pct"	"Vanilla"	"D"	NA	NA	3594	6000	"0.5"	"0.5"	"0.5"	"0.5"	"0.5"	"0.5"	"0.5"	"0.5"	"0.5"	"0.5"	"0.5"	"0.5"	"0.5"	"0.5"	"0.5"	"0.5"	"0.5"	"0.5"	"0.5"	"0.5"	"0.5"	"0.5"	"0.5"	"0.5"	"0.5"	"0.5"	"0.5"	"0.5"	"0.5"	"0.5"	"0.5"	"0.5"	"0.5"	"0.5"	"0.5"	"0.5"	"0.5"	"0.5"	"0.5"	"0.5"	"0.5"	"0.5"	"0.5"	"0.5"	"0.5"	"0.5"	"0.5"	"0.5"	"0.5"	"0.5"	"0.5"	"0.5"	"0.5"	"0.5"	"0.5"	"0.5"	"0.5"	"0.5"	"0.5"	"0.5"	"0.5"	"0.5"	"0.5"	"0.5"	"0.5"	"0.5"	"0.5"	"0.5"	"0.5"	"0.5"	"0.5"	"0.5"	"0.5"	"0.5"	"0.5"	"0.5"	"0.5"	"0.5"	"0.5"	"0.5"	"0.5"	"0.5"	"0.5"	"0.5"	"0.5"	"0.5"	"0.5"	"0.5"	"0.5"	"0.5"	"0.5"	"0.5"	"0.5"	"0.5"	"0.5"	"0.5"	"0.5"	"0.5"	"0.5"	"0.5"	"0.5"	"0.5"	"0.5"	"0.5"	"0.5"	"0.5"	"0.5"	"0.5"	"0.5"	"0.5"	"0.5"	"0.5"	"0.5"	"0.5"	"0.5"	"0.5"	"0.5"	"0.5"	"0.5"	"0.5"	"0.5"	"0.5"	"0.5"	"0.5"	"0.5"	"0.5"	"0.5"	"0.5"	"0.5"	"0.5"	"0.5"	"0.5"	"0.5"	"0.5"	"0.5"	"0.5"	"0.5"	"0.5"	"0.5"	"0.5"	"0.5"	"0.5"	"0.5"	"0.5"	"0.5"	"0.5"	"0.5"	NA	NA	NA	NA	NA	0	0	5000	0	5000	"sol-ichart-vanilla1-n41"	"./"	"yes"	NA	"adult"	"yes"	"no"	"no-shift"	"Adults"	"1"	0	0	NA	NA	0	NA	0	0	0.5
"30006"	"V1"	575	"F"	"sol-inc-2-nounon"	25	""	"cookie2.pct"	"sign.pct"	"juice2.pct"	"l"	"cookie2.pct"	"Vanilla"	"D"	2	1667	2330	6000	"0.5"	"0.5"	"0.5"	"0.5"	"0.5"	"0.5"	"0.5"	"0.5"	"0.5"	"0.5"	"0.5"	"0.5"	"0.5"	"0.5"	"0.5"	"0.5"	"0.5"	"0.5"	"0.5"	"0.5"	"0.5"	"0.5"	"0.5"	"0.5"	"0.5"	"0.5"	"0.5"	"0.5"	"0.5"	"0.5"	"0.5"	"0.5"	"0.5"	"0.5"	"0.5"	"0.5"	"0.5"	"0.5"	"0.5"	"0.5"	"0.5"	"0.5"	"0.5"	"0.5"	"0.5"	"0.5"	"0.5"	"0.5"	"0.5"	"0.5"	"."	"."	"1"	"1"	"1"	"1"	"1"	"1"	"1"	"1"	"1"	"1"	"1"	"1"	"1"	"1"	"1"	"1"	"1"	"1"	"1"	"1"	"1"	"1"	"1"	"1"	"1"	"1"	"1"	"1"	"1"	"1"	"1"	"1"	"1"	"1"	"1"	"1"	"1"	"1"	"1"	"1"	"1"	"1"	"1"	"1"	"1"	"1"	"1"	"1"	"1"	"1"	"1"	"1"	"1"	"1"	"1"	"1"	"1"	"1"	"1"	"1"	"1"	"1"	"1"	"1"	""	""	""	""	""	""	""	""	""	""	""	""	""	""	""	""	""	""	""	""	""	""	""	""	""	""	""	""	""	""	""	NA	NA	NA	1667	NA	0	0	5000	0	5000	"sol-ichart-vanilla1-n41"	"./"	"yes"	NA	"adult"	"yes"	"no"	"C-T"	"Adults"	"1"	2	2	1667	2	64	1667	1	64	15.2695652173913
"30006"	"V1"	575	"F"	"sol-inc-2-nounon"	26	""	"teddy1.pct"	"sign.pct"	"doll1L.pct"	"r"	"doll1L.pct"	"Vanilla"	"D"	4	1033	1924	6000	"0.5"	"0.5"	"0.5"	"0.5"	"0.5"	"0.5"	"0.5"	"0.5"	"0.5"	"0.5"	"0.5"	"0.5"	"0.5"	"0.5"	"0.5"	"0.5"	"0.5"	"0.5"	"0.5"	"0.5"	"0.5"	"0.5"	"0.5"	"0.5"	"0.5"	"0.5"	"0.5"	"0.5"	"0.5"	"0.5"	"0.5"	"."	"."	"."	"."	"1"	"1"	"1"	"1"	"1"	"1"	"1"	"1"	"1"	"1"	"1"	"1"	"1"	"1"	"1"	"1"	"1"	"1"	"1"	"1"	"1"	"1"	"1"	"1"	"1"	"1"	"1"	"1"	"1"	"1"	"1"	"1"	"1"	"1"	"1"	"1"	"1"	"1"	"1"	"1"	"1"	"1"	"1"	"1"	"1"	"1"	"1"	"1"	"1"	"1"	"1"	"1"	"1"	"1"	"1"	"1"	"1"	"1"	"1"	"1"	"1"	"1"	"1"	"1"	"1"	"1"	"1"	"1"	"1"	"1"	"1"	"1"	"1"	"1"	"1"	"1"	"1"	"1"	"1"	"1"	"1"	"1"	"1"	"1"	"1"	""	""	""	""	""	""	""	""	""	""	""	""	""	""	""	""	""	""	""	""	""	""	""	""	""	""	""	NA	NA	NA	1033	NA	0	0	5000	0	5000	"sol-ichart-vanilla1-n41"	"./"	"yes"	NA	"adult"	"yes"	"no"	"C-T"	"Adults"	"1"	4	4	1033	4	85	1033	1	85	9.68803418803419
"30006"	"V1"	575	"F"	"sol-inc-2-nounon"	23	""	"kitty3R.pct"	"sign.pct"	"birdy3L.pct"	"r"	"birdy3L.pct"	"Vanilla"	"D"	2	1367	1957	6000	"0.5"	"0.5"	"0.5"	"0.5"	"0.5"	"0.5"	"0.5"	"0.5"	"0.5"	"0.5"	"0.5"	"0.5"	"0.5"	"0.5"	"0.5"	"0.5"	"0.5"	"0.5"	"0.5"	"0.5"	"0.5"	"0.5"	"0.5"	"0.5"	"0.5"	"0.5"	"0.5"	"0.5"	"0.5"	"0.5"	"0.5"	"0.5"	"0.5"	"0.5"	"0.5"	"0.5"	"0.5"	"0.5"	"0.5"	"0.5"	"0.5"	"."	"."	"1"	"1"	"1"	"1"	"1"	"1"	"1"	"1"	"1"	"."	"."	"."	"."	"."	"0.5"	"0.5"	"0.5"	"0.5"	"0.5"	"0.5"	"0.5"	"0.5"	"0.5"	"0.5"	"0.5"	"0.5"	"0.5"	"0.5"	"0.5"	"0.5"	"0.5"	"0.5"	"0.5"	"0.5"	"0.5"	"0.5"	"0.5"	"0.5"	"0.5"	"0.5"	"0.5"	"0.5"	"0.5"	"0.5"	"0.5"	"0.5"	"0.5"	"0.5"	"0.5"	"0.5"	"0.5"	"0.5"	""	""	""	""	""	""	""	""	""	""	""	""	""	""	""	""	""	""	""	""	""	""	""	""	""	""	""	""	""	""	""	""	""	""	""	""	""	""	""	""	""	""	""	""	""	""	""	""	""	""	""	""	NA	NA	NA	1367	NA	0	0	5000	0	5000	"sol-ichart-vanilla1-n41"	"./"	"yes"	NA	"adult"	"yes"	"no"	"C-T"	"Adults"	"1"	5	7	1733	2	9	1367	2	9	15.9044943820225
"30006"	"V1"	575	"F"	"sol-inc-2-nounon"	28	""	"juice2.pct"	"sign.pct"	"cookie2.pct"	"l"	"juice2.pct"	"Vanilla"	"D"	NA	NA	2330	6000	"0.5"	"0.5"	"0.5"	"0.5"	"0.5"	"0.5"	"0.5"	"0.5"	"0.5"	"0.5"	"0.5"	"0.5"	"0.5"	"0.5"	"0.5"	"0.5"	"0.5"	"0.5"	"0.5"	"0.5"	"0.5"	"0.5"	"0.5"	"0.5"	"0.5"	"0.5"	"0.5"	"0.5"	"0.5"	"0.5"	"0.5"	"0.5"	"0.5"	"0.5"	"0.5"	"0.5"	"0.5"	"0.5"	"0.5"	"0.5"	"0.5"	"0.5"	"0.5"	"0.5"	"0.5"	"0.5"	"0.5"	"0.5"	"0.5"	"0.5"	"0.5"	"0.5"	"0.5"	"0.5"	"0.5"	"0.5"	"0.5"	"0.5"	"0.5"	"0.5"	"0.5"	"0.5"	"0.5"	"0.5"	"0.5"	"0.5"	"0.5"	"0.5"	"0.5"	"0.5"	"0.5"	"0.5"	"0.5"	"0.5"	"0.5"	"0.5"	"0.5"	"0.5"	"0.5"	"0.5"	"0.5"	"0.5"	"0.5"	"0.5"	"0.5"	"0.5"	"0.5"	"0.5"	"0.5"	""	""	""	""	""	""	""	""	""	""	""	""	""	""	""	""	""	""	""	""	""	""	""	""	""	""	""	""	""	""	""	""	""	""	""	""	""	""	""	""	""	""	""	""	""	""	""	""	""	""	""	""	""	""	""	""	""	""	NA	NA	NA	NA	NA	0	0	5000	0	5000	"sol-ichart-vanilla1-n41"	"./"	"yes"	NA	"adult"	"yes"	"no"	"no-shift"	"Adults"	"1"	0	0	NA	NA	0	NA	0	0	0.5
"30006"	"V1"	575	"F"	"sol-inc-2-nounon"	29	""	"redball.pct"	"sign.pct"	"redshoeL.pct"	"l"	"redball.pct"	"Vanilla"	"D"	1	233	3033	6000	"0.5"	"0.5"	"0.5"	"0.5"	"0.5"	"0.5"	"0.5"	"."	"1"	"1"	"1"	"1"	"1"	"1"	"1"	"1"	"1"	"1"	"1"	"1"	"1"	"1"	"1"	"1"	"1"	"1"	"1"	"1"	"1"	"1"	"1"	"."	"."	"."	"."	"."	"."	"."	"0.5"	"0.5"	"0.5"	"0.5"	"0.5"	"0.5"	"0.5"	"0.5"	"0.5"	"0.5"	"0.5"	"0.5"	"0.5"	"0.5"	"0.5"	"0.5"	"0.5"	"0.5"	"0.5"	"0.5"	"0.5"	"0.5"	"0.5"	"0.5"	"0.5"	"0.5"	"0.5"	"0.5"	"0.5"	"0.5"	"0.5"	"0.5"	"0.5"	"0.5"	"0.5"	"0.5"	"0.5"	"0.5"	"0.5"	"0.5"	"0.5"	"0.5"	"0.5"	"0.5"	"0.5"	"0.5"	"0.5"	"0.5"	"0.5"	"0.5"	"0.5"	"0.5"	"0.5"	"0.5"	"0.5"	"."	"."	"."	"."	"."	"."	"."	"."	"."	"."	"."	"."	"."	"."	"."	"."	"."	"."	"."	"."	"."	"."	"."	"."	"."	"."	"."	"."	"."	"."	"."	"."	"."	"."	"."	"."	"."	"."	""	""	""	""	""	""	""	""	""	""	""	""	""	""	""	""	NA	NA	NA	233	NA	0	0	5000	0	5000	"sol-ichart-vanilla1-n41"	"./"	"yes"	NA	"adult"	"yes"	"no"	"C-T"	"Adults"	"1"	45	46	2867	1	23	233	2	23	3.33720930232558
"30006"	"V1"	575	"F"	"sol-inc-2-nounon"	2	""	"doll1R.pct"	"sign.pct"	"teddy1.pct"	"l"	"doll1R.pct"	"Vanilla"	"D"	2	767	2066	6000	"0.5"	"0.5"	"0.5"	"0.5"	"0.5"	"0.5"	"0.5"	"0.5"	"0.5"	"0.5"	"0.5"	"0.5"	"0.5"	"0.5"	"0.5"	"0.5"	"0.5"	"0.5"	"0.5"	"0.5"	"0.5"	"0.5"	"0.5"	"."	"."	"1"	"1"	"1"	"1"	"1"	"1"	"1"	"1"	"1"	"1"	"1"	"1"	"1"	"1"	"1"	"1"	"1"	"1"	"1"	"1"	"1"	"1"	"1"	"."	"0.5"	"0.5"	"0.5"	"0.5"	"0.5"	"0.5"	"0.5"	"0.5"	"0.5"	"0.5"	"0.5"	"0.5"	"0.5"	"0.5"	"0.5"	"0.5"	"0.5"	"0.5"	"0.5"	"0.5"	"0.5"	"0.5"	"0.5"	"0.5"	"0.5"	"0.5"	"0.5"	"0.5"	"0.5"	"0.5"	"0.5"	"0.5"	"0.5"	"0.5"	"0.5"	"0.5"	"0.5"	"0.5"	"0.5"	"0.5"	"0.5"	"0.5"	"0.5"	"0.5"	"0.5"	"0.5"	"0.5"	"0.5"	"0.5"	"0.5"	"0.5"	"0.5"	"0.5"	"0.5"	"0.5"	"0.5"	"0.5"	"0.5"	"0.5"	"0.5"	"0.5"	"0.5"	""	""	""	""	""	""	""	""	""	""	""	""	""	""	""	""	""	""	""	""	""	""	""	""	""	""	""	""	""	""	""	""	""	""	""	""	NA	NA	NA	767	NA	0	0	5000	0	5000	"sol-ichart-vanilla1-n41"	"./"	"yes"	NA	"adult"	"yes"	"no"	"C-T"	"Adults"	"1"	2	3	767	2	23	767	2	23	7.63761467889908
"30006"	"V1"	575	"F"	"sol-inc-2-nounon"	3	""	"redsockR.pct"	"sign.pct"	"bluecup.pct"	"l"	"redsockR.pct"	"Vanilla"	"D"	5	867	3165	6000	"0.5"	"0.5"	"0.5"	"0.5"	"0.5"	"0.5"	"0.5"	"0.5"	"0.5"	"0.5"	"0.5"	"0.5"	"0.5"	"0.5"	"0.5"	"0.5"	"0.5"	"0.5"	"0.5"	"0.5"	"0.5"	"0.5"	"0.5"	"0.5"	"0.5"	"0.5"	"."	"."	"."	"."	"."	"1"	"1"	"1"	"1"	"1"	"1"	"1"	"1"	"1"	"1"	"1"	"1"	"1"	"1"	"1"	"1"	"1"	"1"	"1"	"1"	"1"	"1"	"1"	"1"	"1"	"1"	"1"	"1"	"1"	"1"	"1"	"1"	"1"	"1"	"1"	"1"	"."	"."	"."	"."	"."	"0.5"	"0.5"	"0.5"	"0.5"	"0.5"	"0.5"	"0.5"	"0.5"	"0.5"	"0.5"	"0.5"	"0.5"	"0.5"	"0.5"	"0.5"	"0.5"	"0.5"	"0.5"	"0.5"	"0.5"	"0.5"	"0.5"	"0.5"	"0.5"	"0.5"	"0.5"	"0.5"	"0.5"	"0.5"	"0.5"	"0.5"	"0.5"	"0.5"	"0.5"	"0.5"	"0.5"	"0.5"	"0.5"	"0.5"	"0.5"	"0.5"	""	""	""	""	""	""	""	""	""	""	""	""	""	""	""	""	""	""	""	""	""	""	""	""	""	""	""	""	""	""	""	""	""	""	NA	NA	NA	867	NA	0	0	5000	0	5000	"sol-ichart-vanilla1-n41"	"./"	"yes"	NA	"adult"	"yes"	"no"	"C-T"	"Adults"	"1"	5	10	867	5	36	867	2	36	9.00480769230769
"30006"	"V1"	575	"F"	"sol-inc-2-nounon"	4	""	"cookie1.pct"	"sign.pct"	"juice1.pct"	"r"	"juice1.pct"	"Vanilla"	"D"	6	933	2165	6000	"0.5"	"0.5"	"0.5"	"0.5"	"0.5"	"0.5"	"0.5"	"0.5"	"0.5"	"0.5"	"0.5"	"0.5"	"0.5"	"0.5"	"0.5"	"0.5"	"0.5"	"0.5"	"0.5"	"0.5"	"0.5"	"0.5"	"0.5"	"0.5"	"0.5"	"0.5"	"0.5"	"0.5"	"."	"."	"."	"."	"."	"."	"1"	"1"	"1"	"1"	"1"	"1"	"1"	"1"	"1"	"1"	"1"	"1"	"1"	"1"	"1"	"1"	"1"	"1"	"1"	"1"	"1"	"1"	"1"	"1"	"1"	"1"	"1"	"1"	"1"	"1"	"1"	"1"	"1"	"1"	"1"	"1"	"1"	"1"	"1"	"1"	"1"	"1"	"1"	"1"	"1"	"1"	"1"	"1"	"1"	"1"	"1"	"1"	"1"	"1"	"1"	"1"	"1"	"1"	"1"	"1"	"1"	"."	"."	"."	"."	"."	"."	"0.5"	"0.5"	"0.5"	"0.5"	"0.5"	"0.5"	"0.5"	""	""	""	""	""	""	""	""	""	""	""	""	""	""	""	""	""	""	""	""	""	""	""	""	""	""	""	""	""	""	""	""	""	""	""	""	""	""	""	NA	NA	NA	933	NA	0	0	5000	0	5000	"sol-ichart-vanilla1-n41"	"./"	"yes"	NA	"adult"	"yes"	"no"	"C-T"	"Adults"	"1"	6	12	933	6	61	933	2	61	10.4278350515464
"30006"	"V1"	575	"F"	"sol-inc-2-nounon"	5	""	"juice2.pct"	"sign.pct"	"cookie2.pct"	"r"	"cookie2.pct"	"Vanilla"	"D"	8	2700	2330	6000	"0.5"	"0.5"	"0.5"	"0.5"	"0.5"	"0.5"	"0.5"	"0.5"	"0.5"	"0.5"	"0.5"	"0.5"	"0.5"	"0.5"	"0.5"	"0.5"	"0.5"	"0.5"	"0.5"	"0.5"	"0.5"	"0.5"	"0.5"	"0.5"	"0.5"	"0.5"	"0.5"	"0.5"	"0.5"	"0.5"	"0.5"	"0.5"	"0.5"	"0.5"	"0.5"	"0.5"	"0.5"	"0.5"	"0.5"	"0.5"	"0.5"	"0.5"	"0.5"	"0.5"	"0.5"	"0.5"	"0.5"	"0.5"	"0.5"	"0.5"	"0.5"	"0.5"	"0.5"	"0.5"	"0.5"	"0.5"	"0.5"	"0.5"	"0.5"	"0.5"	"0.5"	"0.5"	"0.5"	"0.5"	"0.5"	"0.5"	"0.5"	"0.5"	"0.5"	"0.5"	"0.5"	"0.5"	"0.5"	"0.5"	"0.5"	"0.5"	"0.5"	"0.5"	"0.5"	"0.5"	"0.5"	"."	"."	"."	"."	"."	"."	"."	"."	"1"	"1"	"1"	"1"	"1"	"1"	"1"	"1"	"1"	"1"	"1"	"1"	"1"	"1"	"1"	"1"	"1"	"1"	"1"	"1"	"1"	"1"	"1"	"1"	"1"	"1"	""	""	""	""	""	""	""	""	""	""	""	""	""	""	""	""	""	""	""	""	""	""	""	""	""	""	""	""	""	""	""	""	NA	NA	NA	2700	NA	0	0	5000	0	5000	"sol-ichart-vanilla1-n41"	"./"	"yes"	NA	"adult"	"yes"	"no"	"C-T"	"Adults"	"1"	8	8	2700	8	26	2700	1	26	25.6157407407407
"30006"	"V1"	575	"F"	"sol-inc-2-nounon"	6	""	"redcup.pct"	"sign.pct"	"redsockL.pct"	"l"	"redcup.pct"	"Vanilla"	"D"	6	1400	3594	6000	"0.5"	"0.5"	"0.5"	"0.5"	"0.5"	"0.5"	"0.5"	"0.5"	"0.5"	"0.5"	"0.5"	"0.5"	"0.5"	"0.5"	"0.5"	"0.5"	"0.5"	"0.5"	"0.5"	"0.5"	"0.5"	"0.5"	"0.5"	"0.5"	"0.5"	"0.5"	"0.5"	"0.5"	"0.5"	"0.5"	"0.5"	"0.5"	"0.5"	"0.5"	"0.5"	"0.5"	"0.5"	"0.5"	"0.5"	"0.5"	"0.5"	"0.5"	"."	"."	"."	"."	"."	"."	"1"	"1"	"1"	"1"	"1"	"1"	"1"	"1"	"1"	"1"	"1"	"1"	"1"	"1"	"1"	"1"	"1"	"1"	"1"	"1"	"1"	"1"	"1"	"1"	"1"	"1"	"1"	"1"	"1"	"1"	"1"	"1"	"1"	"1"	"1"	"1"	"1"	"1"	"1"	"1"	"1"	"1"	"1"	"1"	"1"	"1"	"1"	"1"	"1"	"1"	"1"	"1"	"1"	"1"	"1"	"1"	"1"	"1"	"1"	"1"	"1"	"1"	"1"	"1"	"1"	"1"	"1"	"1"	"1"	"1"	"1"	"1"	"1"	"1"	"1"	"1"	"1"	"1"	"1"	"1"	"1"	"1"	"1"	"1"	"1"	"1"	"1"	"1"	"1"	"1"	"1"	"1"	"1"	"1"	"1"	"1"	"1"	"1"	"1"	NA	NA	NA	1400	NA	0	0	5000	0	5000	"sol-ichart-vanilla1-n41"	"./"	"yes"	NA	"adult"	"yes"	"no"	"C-T"	"Adults"	"1"	6	6	1400	6	99	1400	1	99	10.7042253521127
"30006"	"V1"	575	"F"	"sol-inc-2-nounon"	7	""	"cookie2.pct"	"sign.pct"	"juice2.pct"	"l"	"cookie2.pct"	"Vanilla"	"D"	7	1133	2429	6000	"0.5"	"0.5"	"0.5"	"0.5"	"0.5"	"0.5"	"0.5"	"0.5"	"0.5"	"0.5"	"0.5"	"0.5"	"0.5"	"0.5"	"0.5"	"0.5"	"0.5"	"0.5"	"0.5"	"0.5"	"0.5"	"0.5"	"0.5"	"0.5"	"0.5"	"0.5"	"0.5"	"0.5"	"0.5"	"0.5"	"0.5"	"0.5"	"0.5"	"0.5"	"."	"."	"."	"."	"."	"."	"."	"1"	"1"	"1"	"1"	"1"	"1"	"1"	"1"	"1"	"1"	"1"	"1"	"1"	"1"	"1"	"1"	"1"	"1"	"1"	"1"	"1"	"1"	"1"	"1"	"1"	"1"	"1"	"1"	"1"	"1"	"1"	"1"	"1"	"1"	"1"	"1"	"1"	"1"	"1"	"1"	"1"	"1"	"1"	"1"	"1"	"1"	"1"	"1"	"1"	"1"	"1"	"1"	"1"	"1"	"1"	"1"	"1"	"1"	"1"	"1"	"1"	"1"	"1"	"1"	"1"	"1"	"1"	"1"	"1"	"1"	"1"	"1"	""	""	""	""	""	""	""	""	""	""	""	""	""	""	""	""	""	""	""	""	""	""	""	""	""	""	""	""	""	""	""	""	""	""	NA	NA	NA	1133	NA	0	0	5000	0	5000	"sol-ichart-vanilla1-n41"	"./"	"yes"	NA	"adult"	"yes"	"no"	"C-T"	"Adults"	"1"	7	7	1133	7	72	1133	1	72	11.4205607476636
"30006"	"V1"	575	"F"	"sol-inc-2-nounon"	8	""	"blueshoeR.pct"	"sign.pct"	"blueball.pct"	"r"	"blueball.pct"	"Vanilla"	"D"	7	433	3066	6000	"0.5"	"0.5"	"0.5"	"0.5"	"0.5"	"0.5"	"0.5"	"0.5"	"0.5"	"0.5"	"0.5"	"0.5"	"0.5"	"."	"."	"."	"."	"."	"."	"."	"1"	"1"	"1"	"1"	"1"	"1"	"1"	"1"	"1"	"1"	"1"	"1"	"1"	"1"	"1"	"1"	"1"	"1"	"1"	"1"	"1"	"1"	"1"	"1"	"1"	"1"	"1"	"1"	"1"	"1"	"1"	"1"	"1"	"1"	"1"	"1"	"1"	"1"	"1"	"1"	"1"	"1"	"1"	"1"	"1"	"1"	"1"	"1"	"1"	"1"	"1"	"1"	"1"	"1"	"1"	"1"	"1"	"1"	"1"	"1"	"1"	"1"	"1"	"1"	"1"	"1"	"1"	"1"	"1"	"1"	"1"	"1"	"1"	"1"	"1"	"1"	"1"	"1"	"1"	"1"	"1"	"1"	"1"	"1"	"1"	"1"	"1"	"1"	"1"	"1"	"1"	"1"	"1"	"1"	"1"	"1"	"1"	"1"	""	""	""	""	""	""	""	""	""	""	""	""	""	""	""	""	""	""	""	""	""	""	""	""	""	""	""	""	""	NA	NA	NA	433	NA	0	0	5000	0	5000	"sol-ichart-vanilla1-n41"	"./"	"yes"	NA	"adult"	"yes"	"no"	"C-T"	"Adults"	"1"	7	7	433	7	98	433	1	98	4.79910714285714
"30006"	"V1"	575	"F"	"sol-inc-2-nounon"	9	""	"birdy1R.pct"	"sign.pct"	"kitty1L.pct"	"l"	"birdy1R.pct"	"Vanilla"	"D"	6	2900	2000	6000	"0.5"	"0.5"	"0.5"	"0.5"	"0.5"	"0.5"	"0.5"	"0.5"	"0.5"	"0.5"	"0.5"	"0.5"	"0.5"	"0.5"	"0.5"	"0.5"	"0.5"	"0.5"	"0.5"	"0.5"	"0.5"	"0.5"	"0.5"	"0.5"	"0.5"	"0.5"	"0.5"	"0.5"	"0.5"	"0.5"	"0.5"	"0.5"	"0.5"	"0.5"	"0.5"	"0.5"	"0.5"	"0.5"	"0.5"	"0.5"	"0.5"	"0.5"	"0.5"	"0.5"	"0.5"	"0.5"	"0.5"	"0.5"	"0.5"	"0.5"	"0.5"	"0.5"	"0.5"	"0.5"	"0.5"	"0.5"	"0.5"	"0.5"	"0.5"	"0.5"	"0.5"	"0.5"	"0.5"	"0.5"	"0.5"	"0.5"	"0.5"	"0.5"	"0.5"	"0.5"	"0.5"	"0.5"	"0.5"	"0.5"	"0.5"	"0.5"	"0.5"	"0.5"	"0.5"	"0.5"	"0.5"	"0.5"	"0.5"	"0.5"	"0.5"	"0.5"	"0.5"	"."	"."	"."	"."	"."	"."	"1"	"1"	"1"	""	""	""	""	""	""	""	""	""	""	""	""	""	""	""	""	""	""	""	""	""	""	""	""	""	""	""	""	""	""	""	""	""	""	""	""	""	""	""	""	""	""	""	""	""	""	""	""	""	""	""	NA	NA	NA	2900	NA	0	0	5000	0	5000	"sol-ichart-vanilla1-n41"	"./"	"yes"	NA	"adult"	"yes"	"no"	"no-shift"	"Adults"	"1"	6	6	2900	6	3	2900	1	3	32.3791208791209
"30006"	"V1"	575	"F"	"sol-inc-2-nounon"	10	""	"redcup.pct"	"sign.pct"	"bluesockL.pct"	"r"	"bluesockL.pct"	"Vanilla"	"D"	7	967	3561	6000	"0.5"	"0.5"	"0.5"	"0.5"	"0.5"	"0.5"	"0.5"	"0.5"	"0.5"	"0.5"	"0.5"	"0.5"	"0.5"	"0.5"	"0.5"	"0.5"	"0.5"	"0.5"	"0.5"	"0.5"	"0.5"	"0.5"	"0.5"	"0.5"	"0.5"	"0.5"	"0.5"	"0.5"	"0.5"	"."	"."	"."	"."	"."	"."	"."	"1"	"1"	"1"	"1"	"1"	"1"	"1"	"1"	"1"	"1"	"1"	"1"	"1"	"."	"0.5"	"0.5"	"0.5"	"0.5"	"0.5"	"0.5"	"0.5"	"0.5"	"0.5"	"0.5"	"0.5"	"0.5"	"0.5"	"0.5"	"0.5"	"0.5"	"0.5"	"0.5"	"0.5"	"0.5"	"0.5"	"0.5"	"0.5"	"0.5"	"0.5"	"0.5"	"0.5"	"0.5"	"0.5"	"0.5"	"0.5"	"0.5"	"0.5"	"0.5"	"0.5"	"0.5"	"0.5"	"0.5"	"0.5"	"0.5"	"0.5"	"0.5"	"0.5"	"0.5"	"0.5"	"0.5"	"0.5"	"0.5"	"0.5"	"0.5"	"0.5"	"0.5"	"0.5"	"0.5"	"0.5"	"0.5"	"0.5"	"0.5"	"0.5"	"0.5"	"0.5"	"0.5"	"0.5"	"0.5"	"0.5"	"0.5"	"0.5"	"0.5"	"0.5"	"0.5"	"0.5"	"0.5"	"0.5"	"0.5"	"0.5"	"0.5"	""	""	""	""	""	""	""	""	""	""	""	""	""	""	""	""	""	""	""	""	""	NA	NA	NA	967	NA	0	0	5000	0	5000	"sol-ichart-vanilla1-n41"	"./"	"yes"	NA	"adult"	"yes"	"no"	"C-T"	"Adults"	"1"	7	8	967	7	13	967	2	13	8.67647058823529
"30006"	"V1"	575	"F"	"sol-inc-2-nounon"	11	""	"cookie3.pct"	"sign.pct"	"juice3.pct"	"r"	"juice3.pct"	"Vanilla"	"D"	2	1300	2330	6000	"0.5"	"0.5"	"0.5"	"0.5"	"0.5"	"0.5"	"0.5"	"0.5"	"0.5"	"0.5"	"0.5"	"0.5"	"0.5"	"0.5"	"0.5"	"0.5"	"0.5"	"0.5"	"0.5"	"0.5"	"0.5"	"0.5"	"0.5"	"0.5"	"0.5"	"0.5"	"0.5"	"0.5"	"0.5"	"0.5"	"0.5"	"0.5"	"0.5"	"0.5"	"0.5"	"0.5"	"0.5"	"0.5"	"0.5"	"."	"."	"1"	"1"	"1"	"1"	"1"	"1"	"1"	"1"	"1"	"1"	"1"	"1"	"1"	"1"	"1"	"1"	"1"	"1"	"1"	"1"	"1"	"1"	"1"	"1"	"1"	"1"	"1"	"1"	"1"	"1"	"1"	"1"	"1"	"1"	"1"	"1"	"1"	"1"	"1"	"1"	"1"	"1"	"1"	"1"	"1"	"1"	"1"	"1"	"1"	""	""	""	""	""	""	""	""	""	""	""	""	""	""	""	""	""	""	""	""	""	""	""	""	""	""	""	""	""	""	""	""	""	""	""	""	""	""	""	""	""	""	""	""	""	""	""	""	""	""	""	""	""	""	""	""	""	NA	NA	NA	1300	NA	0	0	5000	0	5000	"sol-ichart-vanilla1-n41"	"./"	"yes"	NA	"adult"	"yes"	"no"	"C-T"	"Adults"	"1"	2	2	1300	2	49	1300	1	49	15.376404494382
"30006"	"V1"	575	"F"	"sol-inc-2-nounon"	12	""	"blueshoeR.pct"	"sign.pct"	"redball.pct"	"r"	"redball.pct"	"Vanilla"	"D"	7	2200	3033	6000	"0.5"	"0.5"	"0.5"	"0.5"	"0.5"	"0.5"	"0.5"	"0.5"	"0.5"	"0.5"	"0.5"	"0.5"	"0.5"	"0.5"	"0.5"	"0.5"	"0.5"	"0.5"	"0.5"	"0.5"	"0.5"	"0.5"	"0.5"	"0.5"	"0.5"	"0.5"	"0.5"	"0.5"	"0.5"	"0.5"	"0.5"	"0.5"	"0.5"	"0.5"	"0.5"	"0.5"	"0.5"	"0.5"	"0.5"	"0.5"	"0.5"	"0.5"	"0.5"	"0.5"	"0.5"	"0.5"	"0.5"	"0.5"	"0.5"	"0.5"	"0.5"	"0.5"	"0.5"	"0.5"	"0.5"	"0.5"	"0.5"	"0.5"	"0.5"	"0.5"	"0.5"	"0.5"	"0.5"	"0.5"	"0.5"	"0.5"	"."	"."	"."	"."	"."	"."	"."	"1"	"1"	"1"	"1"	"1"	"1"	"1"	"1"	"1"	"1"	"1"	"1"	"1"	"1"	"1"	"1"	"1"	"1"	"1"	"1"	"1"	"1"	"1"	"1"	"1"	"1"	"1"	"1"	"1"	"1"	"1"	"1"	"1"	"1"	"1"	"1"	"1"	"1"	"1"	"1"	"1"	"1"	"1"	"1"	"1"	"1"	"1"	"1"	"1"	"1"	"1"	"1"	"1"	"1"	"1"	"1"	"1"	"1"	"1"	""	""	""	""	""	""	""	""	""	""	""	""	""	""	""	NA	NA	NA	2200	NA	0	0	5000	0	5000	"sol-ichart-vanilla1-n41"	"./"	"yes"	NA	"adult"	"yes"	"no"	"C-T"	"Adults"	"1"	7	7	2200	7	59	2200	1	59	18.1904761904762
"30006"	"V1"	575	"F"	"sol-inc-2-nounon"	13	""	"cookie1.pct"	"sign.pct"	"juice1.pct"	"l"	"cookie1.pct"	"Vanilla"	"D"	2	767	2330	6000	"0.5"	"0.5"	"0.5"	"0.5"	"0.5"	"0.5"	"0.5"	"0.5"	"0.5"	"0.5"	"0.5"	"0.5"	"0.5"	"0.5"	"0.5"	"0.5"	"0.5"	"0.5"	"0.5"	"0.5"	"0.5"	"0.5"	"0.5"	"."	"."	"1"	"1"	"1"	"1"	"1"	"1"	"1"	"1"	"1"	"1"	"1"	"1"	"1"	"1"	"1"	"1"	"1"	"1"	"1"	"1"	"1"	"1"	"1"	"1"	"1"	"1"	"1"	"1"	"1"	"1"	"1"	"1"	"1"	"1"	"1"	"1"	"1"	"1"	"1"	"1"	"1"	"1"	"1"	"1"	"1"	"1"	"1"	"1"	"1"	"1"	"1"	"1"	"1"	"1"	"1"	"1"	"1"	"1"	"1"	"1"	"1"	"1"	"1"	"1"	"1"	"1"	"1"	"1"	"1"	"1"	"1"	"1"	"1"	"1"	"1"	"1"	"1"	"1"	"1"	"1"	"1"	"1"	"1"	"1"	"1"	"1"	"1"	"1"	"1"	"1"	"1"	""	""	""	""	""	""	""	""	""	""	""	""	""	""	""	""	""	""	""	""	""	""	""	""	""	""	""	""	""	""	""	NA	NA	NA	767	NA	0	0	5000	0	5000	"sol-ichart-vanilla1-n41"	"./"	"yes"	NA	"adult"	"yes"	"no"	"C-T"	"Adults"	"1"	2	2	767	2	91	767	1	91	7.56086956521739
