"Sub.Num"	"Months"	"Sex"	"Order"	"Tr.Num"	"Prescreen.Notes"	"L.image"	"C.Image"	"R.image"	"Target.Side"	"Target.Image"	"Condition"	"Response"	"First.Shift.Gap"	"RT"	"CritOnSet"	"CritOffSet"	"0"	"33"	"67"	"100"	"133"	"167"	"200"	"233"	"267"	"300"	"333"	"367"	"400"	"433"	"467"	"500"	"533"	"567"	"600"	"633"	"667"	"700"	"733"	"767"	"800"	"833"	"867"	"900"	"933"	"967"	"1000"	"1033"	"1067"	"1100"	"1133"	"1167"	"1200"	"1233"	"1267"	"1300"	"1333"	"1367"	"1400"	"1433"	"1467"	"1500"	"1533"	"1567"	"1600"	"1633"	"1667"	"1700"	"1733"	"1767"	"1800"	"1833"	"1867"	"1900"	"1933"	"1967"	"2000"	"2033"	"2067"	"2100"	"2133"	"2167"	"2200"	"2233"	"2267"	"2300"	"2333"	"2367"	"2400"	"2433"	"2467"	"2500"	"2533"	"2567"	"2600"	"2633"	"2667"	"2700"	"2733"	"2767"	"2800"	"2833"	"2867"	"2900"	"2933"	"2967"	"3000"	"3033"	"3067"	"3100"	"3133"	"3167"	"3200"	"3233"	"3267"	"3300"	"3333"	"3367"	"3400"	"3433"	"3467"	"3500"	"3533"	"3567"	"3600"	"3633"	"3667"	"3700"	"3733"	"3767"	"3800"	"3833"	"3867"	"3900"	"3933"	"3967"	"4000"	"4033"	"4067"	"4100"	"4133"	"4167"	"4200"	"4233"	"4267"	"4300"	"4333"	"4367"	"4400"	"4433"	"4467"	"4500"	"4533"	"4567"	"4600"	"4633"	"4667"	"4700"	"4733"	"4767"	"4800"	"4833"	"4867"	"4900"	"4933"	"4967"	"5000"	"5033"	"5067"	"Block"	"Offset"	"StartWindowRT"	"EndWindowRT"	"StartWindowAcc"	"EndWindowAcc"	"StudyName"	"Directory"	"stimuli"	"5100"	"5133"	"5167"	"include"	"reason_excluded"	"age_code"	"signs_produced"	"hearing_status_participant"	"clean_target_img"	"parent_report_unknown_signs"	"unknown_trial"	"good_trials"	"exclude_few_trials"	"age_group"	"age_group_collapsed"	"trial_types"	"longestLook"	"longestGap"	"Gap"	"longestGapPosition"	"firstGap"	"durationLongestLook"	"StartlongestLook_T"	"NumberOfShifts"	"FirstFixation"	"Accuracy"	"GoodFirstGap"	"GoodRT"	"GoodLongestGap"	"trial_types_analysis_kids"	"trial_types_analysis_kids"
"30009"	39	"F"	"sol-vanilla-1"	2	""	"doll1R.pct"	""	"teddy1R.pct"	"l"	"doll1R.pct"	"Vanilla"	"D"	1	933	1891	8000	"0.5"	"0.5"	"0.5"	"0.5"	"0.5"	"0.5"	"0.5"	"0.5"	"0.5"	"0.5"	"0.5"	"0.5"	"0.5"	"0.5"	"0.5"	"0.5"	"0.5"	"0.5"	"0.5"	"0.5"	"0.5"	"0.5"	"0.5"	"0.5"	"0.5"	"0.5"	"0.5"	"0.5"	"."	"1"	"1"	"1"	"1"	"1"	"1"	"1"	"1"	"1"	"1"	"1"	"1"	"1"	"1"	"1"	"1"	"1"	"1"	"1"	"1"	"1"	"1"	"1"	"1"	"1"	"1"	"1"	"1"	"1"	"1"	"1"	"1"	"1"	"1"	"1"	"1"	"1"	"1"	"1"	"1"	"1"	"1"	"1"	"."	"."	"."	"."	"0.5"	"0.5"	"0.5"	"0.5"	"0.5"	"0.5"	"0.5"	"0.5"	"0.5"	"0.5"	"0.5"	"0.5"	"."	"."	"0"	"0"	"0"	"0"	"0"	"0"	"0"	"0"	"0"	"0"	"0"	"0"	"0"	"0"	"0"	"0"	"0"	"0"	"0"	"0"	"0"	"0"	"0"	"."	"."	"0.5"	"0.5"	"0.5"	"0.5"	""	""	""	""	""	""	""	""	""	""	""	""	""	""	""	""	""	""	""	""	""	""	""	""	""	""	""	""	NA	NA	NA	NA	NA	"933"	NA	0	0	3000	600	3000	"sol-ichart-v1-post-gating"	"./"	"V1"	NA	NA	NA	"yes"	"OK"	"child"	81	"hearing"	"doll"	"none"	"known_sign"	31	"include"	">= 27 Months"	"Kids"	"C_T"	"1"	6	7	2800	1	43	933	2	43	0.818181818181818	TRUE	TRUE	TRUE	"C_T"	"C_T"
"30009"	39	"F"	"sol-vanilla-1"	3	""	"book1R.pct"	""	"car1L.pct"	"r"	"car1L.pct"	"Vanilla"	"D"	2	1033	1759	8000	"0.5"	"0.5"	"0.5"	"0.5"	"0.5"	"0.5"	"0.5"	"0.5"	"0.5"	"0.5"	"0.5"	"0.5"	"0.5"	"0.5"	"0.5"	"0.5"	"0.5"	"0.5"	"0.5"	"0.5"	"0.5"	"0.5"	"0.5"	"0.5"	"0.5"	"0.5"	"0.5"	"0.5"	"0.5"	"0.5"	"0.5"	"."	"."	"0"	"0"	"0"	"0"	"0"	"0"	"0"	"0"	"."	"."	"."	"1"	"1"	"1"	"1"	"1"	"1"	"1"	"1"	"1"	"1"	"1"	"1"	"1"	"1"	"1"	"1"	"1"	"1"	"1"	"1"	"1"	"1"	"1"	"1"	"1"	"1"	"1"	"1"	"1"	"1"	"1"	"."	"."	"."	"0"	"0"	"0"	"0"	"0"	"0"	"0"	"0"	"0"	"0"	"0"	"0"	"0"	"0"	"0"	"0"	"0"	"0"	"."	"."	"0.5"	"0.5"	"0.5"	"0.5"	"0.5"	"0.5"	"0.5"	"0.5"	"0.5"	"0.5"	"0.5"	""	""	""	""	""	""	""	""	""	""	""	""	""	""	""	""	""	""	""	""	""	""	""	""	""	""	""	""	""	""	""	""	""	""	""	""	""	""	NA	NA	NA	NA	NA	"1033"	NA	0	0	3000	600	3000	"sol-ichart-v1-post-gating"	"./"	"V1"	NA	NA	NA	"yes"	"OK"	"child"	81	"hearing"	"car"	"none"	"known_sign"	31	"include"	">= 27 Months"	"Kids"	"C_D"	"1"	3	8	1367	2	31	1367	3	8	0.576923076923077	TRUE	TRUE	TRUE	"C_D"	"C_D"
"30009"	39	"F"	"sol-vanilla-1"	4	""	"ball1R.pct"	""	"shoe1L.pct"	"l"	"ball1R.pct"	"Vanilla"	"D"	2	833	2132	8000	"0.5"	"0.5"	"0.5"	"0.5"	"0.5"	"0.5"	"0.5"	"0.5"	"0.5"	"0.5"	"0.5"	"0.5"	"0.5"	"0.5"	"0.5"	"0.5"	"0.5"	"0.5"	"0.5"	"0.5"	"0.5"	"0.5"	"0.5"	"0.5"	"0.5"	"."	"."	"1"	"1"	"1"	"1"	"1"	"1"	"."	"."	"0.5"	"0.5"	"0.5"	"0.5"	"0.5"	"0.5"	"0.5"	"0.5"	"0.5"	"0.5"	"0.5"	"0.5"	"0.5"	"0.5"	"0.5"	"0.5"	"0.5"	"0.5"	"0.5"	"0.5"	"0.5"	"0.5"	"."	"."	"1"	"1"	"1"	"1"	"1"	"1"	"1"	"1"	"1"	"1"	"1"	"1"	"1"	"1"	"1"	"."	"."	"0"	"0"	"0"	"0"	"0"	"0"	"0"	"0"	"0"	"0"	"0"	"0"	"0"	"0"	"0"	"0"	"0"	"0"	"0"	"0"	"0"	"0"	"0"	"0"	"0"	"0"	"0"	"0"	"0"	"0"	"0"	"0"	"0"	"0"	"0"	"0"	"0"	"0"	"."	"."	"0.5"	"0.5"	"0.5"	"0.5"	"0.5"	"0.5"	"0.5"	"0.5"	"0.5"	"0.5"	"0.5"	"0.5"	"0.5"	"0.5"	"0.5"	"0.5"	"0.5"	"0.5"	"0.5"	"0.5"	""	""	""	""	""	""	""	""	""	""	""	NA	NA	NA	NA	NA	"833"	NA	0	0	3000	600	3000	"sol-ichart-v1-post-gating"	"./"	"V1"	NA	NA	NA	"yes"	"OK"	"child"	81	"hearing"	"ball"	"none"	"known_sign"	31	"include"	">= 27 Months"	"Kids"	"C_T"	"1"	4	8	1833	2	15	1100	3	6	0.546153846153846	TRUE	TRUE	TRUE	"C_T"	"C_T"
"30009"	39	"F"	"sol-vanilla-1"	5	""	"doll2R.pct"	""	"teddy3.pct"	"r"	"teddy3.pct"	"Vanilla"	"D"	2	967	1957	8000	"0.5"	"0.5"	"0.5"	"0.5"	"0.5"	"0.5"	"0.5"	"0.5"	"0.5"	"0.5"	"0.5"	"0.5"	"0.5"	"0.5"	"0.5"	"0.5"	"0.5"	"0.5"	"0.5"	"0.5"	"0.5"	"0.5"	"0.5"	"0.5"	"0.5"	"0.5"	"0.5"	"0.5"	"0.5"	"."	"."	"0"	"0"	"0"	"0"	"0"	"0"	"0"	"0"	"0"	"0"	"0"	"0"	"0"	"0"	"0"	"."	"."	"0.5"	"0.5"	"0.5"	"."	"."	"0"	"0"	"0"	"0"	"0"	"0"	"0"	"0"	"0"	"0"	"."	"."	"1"	"1"	"1"	"1"	"1"	"1"	"1"	"1"	"1"	"1"	"1"	"1"	"1"	"1"	"1"	"1"	"1"	"1"	"1"	"1"	"1"	"1"	"."	"."	"."	"."	"."	"."	"."	"."	"."	"0"	"0"	"0"	"0"	"0"	"0"	"0"	"0"	"0"	"0"	"0"	"0"	"0"	"0"	"0"	"0"	"0"	"0"	"0"	"0"	"0"	"0"	"0"	"0"	"0"	"0"	"0"	"0"	"0"	"0"	"0"	""	""	""	""	""	""	""	""	""	""	""	""	""	""	""	""	""	""	""	""	NA	NA	NA	NA	NA	"967"	NA	0	0	3000	600	3000	"sol-ichart-v1-post-gating"	"./"	"V1"	NA	NA	NA	"yes"	"OK"	"child"	81	"hearing"	"teddy"	"none"	"known_sign"	31	"include"	">= 27 Months"	"Kids"	"C_D"	"1"	4	12	1633	2	22	2100	4	15	0.475409836065574	TRUE	TRUE	TRUE	"C_D"	"C_D"
"30009"	39	"F"	"sol-vanilla-1"	6	""	"ball2R.pct"	""	"shoe2L.pct"	"r"	"shoe2L.pct"	"Vanilla"	"D"	2	767	1759	8000	"0.5"	"0.5"	"0.5"	"0.5"	"0.5"	"0.5"	"0.5"	"0.5"	"0.5"	"0.5"	"0.5"	"0.5"	"0.5"	"0.5"	"0.5"	"0.5"	"0.5"	"0.5"	"0.5"	"0.5"	"0.5"	"0.5"	"0.5"	"."	"."	"1"	"1"	"1"	"1"	"1"	"1"	"1"	"1"	"1"	"1"	"1"	"1"	"1"	"1"	"1"	"1"	"1"	"1"	"1"	"1"	"1"	"1"	"1"	"1"	"1"	"1"	"."	"."	"0.5"	"0.5"	"0.5"	"0.5"	"0.5"	"0.5"	"0.5"	"."	"."	"1"	"1"	"1"	"1"	"1"	"1"	"1"	"1"	"1"	"1"	"1"	"1"	"1"	"1"	"1"	"1"	"1"	"1"	"1"	"1"	"1"	"1"	"1"	"1"	"1"	"1"	"1"	"1"	"1"	"1"	"1"	"1"	"1"	"1"	"1"	"1"	"1"	"1"	"1"	"1"	"1"	"1"	"1"	"1"	"1"	"1"	"1"	"1"	"1"	"1"	"1"	"1"	"1"	"1"	"1"	"1"	"1"	"1"	"1"	"1"	"1"	"1"	"1"	""	""	""	""	""	""	""	""	""	""	""	""	""	""	""	""	""	""	""	""	""	""	NA	NA	NA	NA	NA	"767"	NA	0	0	3000	600	3000	"sol-ichart-v1-post-gating"	"./"	"V1"	NA	NA	NA	"yes"	"OK"	"child"	81	"hearing"	"shoe"	"none"	"known_sign"	31	"include"	">= 27 Months"	"Kids"	"C_T"	"1"	4	6	1933	2	29	1700	2	26	0.91044776119403	TRUE	TRUE	TRUE	"C_T"	"C_T"
"30009"	39	"F"	"sol-vanilla-1"	7	""	"kitty1R.pct"	""	"birdy1L.pct"	"r"	"birdy1L.pct"	"Vanilla"	"D"	1	1067	1792	8000	"0.5"	"0.5"	"0.5"	"0.5"	"0.5"	"0.5"	"0.5"	"0.5"	"0.5"	"0.5"	"0.5"	"0.5"	"0.5"	"0.5"	"0.5"	"0.5"	"0.5"	"0.5"	"0.5"	"0.5"	"0.5"	"0.5"	"0.5"	"0.5"	"0.5"	"0.5"	"0.5"	"0.5"	"0.5"	"0.5"	"0.5"	"0.5"	"."	"1"	"1"	"1"	"1"	"1"	"1"	"1"	"1"	"1"	"1"	"1"	"1"	"1"	"1"	"1"	"1"	"1"	"1"	"1"	"1"	"1"	"1"	"1"	"1"	"1"	"1"	"1"	"1"	"1"	"1"	"1"	"1"	"1"	"1"	"1"	"1"	"1"	"1"	"1"	"1"	"1"	"1"	"1"	"1"	"1"	"1"	"1"	"1"	"1"	"1"	"1"	"1"	"1"	"1"	"1"	"1"	"."	"."	"0.5"	"0.5"	"0.5"	"0.5"	"0.5"	"0.5"	"0.5"	"0.5"	"0.5"	"0.5"	"0.5"	"0.5"	""	""	""	""	""	""	""	""	""	""	""	""	""	""	""	""	""	""	""	""	""	""	""	""	""	""	""	""	""	""	""	""	""	""	""	""	""	""	""	""	""	""	""	""	NA	NA	NA	NA	NA	"1067"	NA	0	0	3000	600	3000	"sol-ichart-v1-post-gating"	"./"	"V1"	NA	NA	NA	"yes"	"OK"	"child"	81	"hearing"	"birdy"	"none"	"known_sign"	31	"include"	">= 27 Months"	"Kids"	"C_T"	"1"	2	3	2967	1	56	1067	2	56	0.9	TRUE	TRUE	TRUE	"C_T"	"C_T"
"30009"	39	"F"	"sol-vanilla-1"	8	""	"book2R.pct"	""	"car2L.pct"	"l"	"book2R.pct"	"Vanilla"	"D"	2	1067	2132	8000	"0.5"	"0.5"	"0.5"	"0.5"	"0.5"	"0.5"	"0.5"	"0.5"	"0.5"	"0.5"	"0.5"	"0.5"	"0.5"	"0.5"	"0.5"	"0.5"	"0.5"	"0.5"	"0.5"	"0.5"	"0.5"	"0.5"	"0.5"	"0.5"	"0.5"	"0.5"	"0.5"	"0.5"	"0.5"	"0.5"	"0.5"	"0.5"	"."	"."	"1"	"1"	"1"	"1"	"1"	"1"	"1"	"1"	"1"	"1"	"1"	"1"	"1"	"1"	"1"	"1"	"1"	"1"	"1"	"1"	"1"	"1"	"1"	"1"	"1"	"1"	"1"	"1"	"1"	"1"	"1"	"1"	"1"	"1"	"1"	"1"	"1"	"1"	"1"	"1"	"1"	"1"	"."	"."	"0"	"0"	"0"	"0"	"0"	"0"	"0"	"0"	"0"	"0"	"0"	"0"	"0"	"0"	"0"	"0"	"0"	"0"	"0"	"0"	"0"	"0"	"."	"."	"0.5"	"0.5"	"0.5"	"0.5"	"0.5"	"0.5"	"0.5"	"0.5"	"0.5"	"0.5"	"0.5"	"0.5"	"0.5"	"0.5"	"0.5"	"0.5"	""	""	""	""	""	""	""	""	""	""	""	""	""	""	""	""	""	""	""	""	""	""	""	""	""	""	""	""	""	NA	NA	NA	NA	NA	"1067"	NA	0	0	3000	600	3000	"sol-ichart-v1-post-gating"	"./"	"V1"	NA	NA	NA	"yes"	"OK"	"child"	81	"hearing"	"book"	"none"	"known_sign"	31	"include"	">= 27 Months"	"Kids"	"C_T"	"1"	2	4	1067	2	42	1067	2	42	0.710144927536232	TRUE	TRUE	TRUE	"C_T"	"C_T"
"30009"	39	"F"	"sol-vanilla-1"	9	""	"kitty2R.pct"	""	"birdy2L.pct"	"l"	"kitty2R.pct"	"Vanilla"	"D"	2	2933	3132	8000	"0.5"	"0.5"	"0.5"	"0.5"	"0.5"	"0.5"	"0.5"	"0.5"	"0.5"	"0.5"	"0.5"	"0.5"	"0.5"	"0.5"	"0.5"	"0.5"	"0.5"	"0.5"	"0.5"	"0.5"	"0.5"	"0.5"	"0.5"	"0.5"	"0.5"	"0.5"	"0.5"	"0.5"	"0.5"	"0.5"	"0.5"	"0.5"	"0.5"	"0.5"	"0.5"	"0.5"	"0.5"	"0.5"	"0.5"	"0.5"	"0.5"	"0.5"	"0.5"	"0.5"	"0.5"	"0.5"	"0.5"	"0.5"	"0.5"	"0.5"	"0.5"	"0.5"	"0.5"	"0.5"	"0.5"	"0.5"	"0.5"	"0.5"	"0.5"	"0.5"	"0.5"	"0.5"	"0.5"	"0.5"	"0.5"	"0.5"	"0.5"	"0.5"	"0.5"	"0.5"	"0.5"	"0.5"	"0.5"	"0.5"	"0.5"	"0.5"	"0.5"	"0.5"	"0.5"	"0.5"	"0.5"	"0.5"	"0.5"	"0.5"	"0.5"	"0.5"	"0.5"	"0.5"	"."	"."	"1"	"1"	"1"	"1"	"1"	"1"	"1"	"1"	"1"	"1"	"1"	"1"	"1"	"1"	"1"	"."	"."	"0.5"	"0.5"	"0.5"	"0.5"	"0.5"	"0.5"	"0.5"	"0.5"	"0.5"	"0.5"	"0.5"	"0.5"	"0.5"	"0.5"	"0.5"	"0.5"	"0.5"	"0.5"	"0.5"	"0.5"	"0.5"	"0.5"	"0.5"	"0.5"	"0.5"	"0.5"	"0.5"	""	""	""	""	""	""	""	""	""	""	""	""	""	NA	NA	NA	NA	NA	"2933"	NA	0	0	3000	600	3000	"sol-ichart-v1-post-gating"	"./"	"V1"	NA	NA	NA	"yes"	"OK"	"child"	81	"hearing"	"kitty"	"none"	"known_sign"	31	"include"	">= 27 Months"	"Kids"	"C_T"	"1"	2	2	2933	2	1	2933	1	1	0.507042253521127	TRUE	FALSE	TRUE	"no_shift"	"no_shift"
"30009"	39	"F"	"sol-vanilla-1"	11	""	"car3R.pct"	""	"book3L.pct"	"r"	"book3L.pct"	"Vanilla"	"D"	2	667	2165	8000	"0.5"	"0.5"	"0.5"	"0.5"	"0.5"	"0.5"	"0.5"	"0.5"	"0.5"	"0.5"	"0.5"	"0.5"	"0.5"	"0.5"	"0.5"	"0.5"	"0.5"	"0.5"	"0.5"	"0.5"	"."	"."	"1"	"1"	"1"	"1"	"1"	"1"	"1"	"1"	"1"	"1"	"1"	"1"	"1"	"1"	"1"	"1"	"1"	"1"	"1"	"1"	"1"	"1"	"1"	"1"	"1"	"1"	"1"	"1"	"1"	"1"	"1"	"1"	"1"	"1"	"1"	"1"	"1"	"1"	"1"	"1"	"1"	"1"	"1"	"1"	"1"	"1"	"1"	"1"	"1"	"1"	"1"	"1"	"1"	"1"	"1"	"1"	"1"	"1"	"1"	"1"	"1"	"1"	"1"	"1"	"1"	"1"	"1"	"1"	"1"	"1"	"1"	"1"	"1"	"1"	"1"	"1"	"1"	"1"	"1"	"1"	"1"	"1"	"1"	"1"	"1"	"1"	"1"	"1"	"1"	"1"	"1"	"1"	"1"	"1"	"1"	"1"	""	""	""	""	""	""	""	""	""	""	""	""	""	""	""	""	""	""	""	""	""	""	""	""	""	""	""	""	""	NA	NA	NA	NA	NA	"667"	NA	0	0	3000	600	3000	"sol-ichart-v1-post-gating"	"./"	"V1"	NA	NA	NA	"yes"	"OK"	"child"	81	"hearing"	"book"	"none"	"known_sign"	31	"include"	">= 27 Months"	"Kids"	"C_T"	"1"	2	2	667	2	69	667	1	69	0.985915492957746	TRUE	TRUE	TRUE	"C_T"	"C_T"
"30009"	39	"F"	"sol-vanilla-1"	12	""	"birdy3R.pct"	""	"kitty3L.pct"	"r"	"kitty3L.pct"	"Vanilla"	"D"	1	833	2132	8000	"0.5"	"0.5"	"0.5"	"0.5"	"0.5"	"0.5"	"0.5"	"0.5"	"0.5"	"0.5"	"0.5"	"0.5"	"0.5"	"0.5"	"0.5"	"0.5"	"0.5"	"0.5"	"0.5"	"0.5"	"0.5"	"0.5"	"0.5"	"0.5"	"0.5"	"."	"1"	"1"	"1"	"1"	"1"	"1"	"1"	"1"	"1"	"1"	"1"	"1"	"1"	"1"	"1"	"1"	"1"	"1"	"1"	"."	"."	"."	"."	"."	"0.5"	"0.5"	"0.5"	"0.5"	"0.5"	"0.5"	"0.5"	"0.5"	"0.5"	"0.5"	"0.5"	"."	"."	"1"	"1"	"1"	"1"	"1"	"1"	"1"	"1"	"1"	"1"	"1"	"1"	"1"	"1"	"1"	"1"	"1"	"1"	"1"	"1"	"."	"0.5"	"0.5"	"0.5"	"0.5"	"0.5"	"0.5"	"0.5"	"0.5"	"0.5"	"0.5"	"0.5"	"0.5"	"0.5"	"0.5"	"0.5"	"0.5"	"0.5"	"0.5"	"0.5"	"0.5"	"0.5"	"0.5"	"0.5"	"0.5"	"0.5"	"0.5"	"0.5"	"0.5"	"0.5"	"0.5"	"0.5"	"0.5"	"0.5"	"0.5"	"0.5"	"0.5"	"0.5"	"0.5"	"0.5"	"0.5"	"0.5"	"0.5"	"0.5"	"0.5"	"0.5"	"0.5"	"0.5"	"0.5"	"0.5"	"0.5"	"0.5"	"0.5"	"0.5"	"0.5"	"0.5"	"0.5"	""	""	""	""	""	""	""	NA	NA	NA	NA	NA	"833"	NA	0	0	3000	600	3000	"sol-ichart-v1-post-gating"	"./"	"V1"	NA	NA	NA	"yes"	"OK"	"child"	81	"hearing"	"kitty"	"none"	"known_sign"	31	"include"	">= 27 Months"	"Kids"	"C_T"	"1"	7	9	1867	1	20	1500	3	19	0.8046875	TRUE	TRUE	TRUE	"C_T"	"C_T"
"30009"	39	"F"	"sol-vanilla-1"	13	""	"teddy2.pct"	""	"doll3L.pct"	"l"	"teddy2.pct"	"Vanilla"	"D"	2	1733	1924	8000	"0.5"	"0.5"	"0.5"	"0.5"	"0.5"	"0.5"	"0.5"	"0.5"	"0.5"	"0.5"	"0.5"	"0.5"	"0.5"	"0.5"	"0.5"	"0.5"	"0.5"	"0.5"	"0.5"	"0.5"	"0.5"	"0.5"	"0.5"	"0.5"	"0.5"	"0.5"	"0.5"	"0.5"	"0.5"	"0.5"	"0.5"	"0.5"	"0.5"	"0.5"	"0.5"	"0.5"	"0.5"	"0.5"	"0.5"	"0.5"	"0.5"	"0.5"	"0.5"	"0.5"	"0.5"	"0.5"	"0.5"	"0.5"	"0.5"	"0.5"	"0.5"	"0.5"	"."	"."	"1"	"1"	"1"	"1"	"1"	"1"	"1"	"1"	"1"	"1"	"1"	"1"	"1"	"1"	"1"	"1"	"1"	"1"	"1"	"1"	"1"	"1"	"1"	"1"	"1"	"1"	"1"	"1"	"1"	"1"	"1"	"1"	"1"	"1"	"1"	"1"	"1"	"1"	"1"	"1"	"1"	"1"	"1"	"1"	"1"	""	""	""	""	""	""	""	""	""	""	""	""	""	""	""	""	""	""	""	""	""	""	""	""	""	""	""	""	""	""	""	""	""	""	""	""	""	""	""	""	""	""	""	""	""	""	""	""	NA	NA	NA	NA	NA	"1733"	NA	0	0	3000	600	3000	"sol-ichart-v1-post-gating"	"./"	"V1"	NA	NA	NA	"yes"	"OK"	"child"	81	"hearing"	"teddy"	"none"	"known_sign"	31	"include"	">= 27 Months"	"Kids"	"C_T"	"1"	2	2	1733	2	37	1733	1	37	0.76056338028169	TRUE	TRUE	TRUE	"C_T"	"C_T"
"30009"	39	"F"	"sol-vanilla-1"	14	""	"shoe3R.pct"	""	"ball3L.pct"	"r"	"ball3L.pct"	"Vanilla"	"D"	2	933	2132	8000	"0.5"	"0.5"	"0.5"	"0.5"	"0.5"	"0.5"	"0.5"	"0.5"	"0.5"	"0.5"	"0.5"	"0.5"	"0.5"	"0.5"	"0.5"	"0.5"	"0.5"	"0.5"	"0.5"	"0.5"	"0.5"	"0.5"	"0.5"	"0.5"	"0.5"	"0.5"	"0.5"	"0.5"	"."	"."	"1"	"1"	"1"	"1"	"1"	"1"	"1"	"1"	"1"	"1"	"."	"."	"0.5"	"0.5"	"0.5"	"0.5"	"0.5"	"0.5"	"0.5"	"0.5"	"0.5"	"0.5"	"0.5"	"0.5"	"0.5"	"0.5"	"0.5"	"0.5"	"0.5"	"0.5"	"0.5"	"0.5"	"0.5"	"0.5"	"0.5"	"0.5"	"0.5"	"0.5"	"0.5"	"0.5"	"0.5"	"0.5"	"0.5"	"0.5"	"0.5"	"0.5"	"0.5"	"0.5"	"0.5"	"0.5"	"0.5"	"0.5"	"0.5"	"0.5"	"0.5"	"0.5"	"0.5"	"0.5"	"0.5"	"0.5"	"0.5"	"0.5"	"0.5"	"0.5"	"0.5"	"0.5"	"0.5"	"0.5"	"0.5"	"0.5"	"0.5"	"0.5"	"0.5"	"0.5"	"0.5"	"0.5"	"0.5"	"0.5"	"0.5"	"0.5"	"0.5"	"0.5"	"0.5"	"0.5"	"0.5"	"0.5"	"0.5"	"0.5"	"0.5"	"0.5"	"0.5"	"0.5"	"0.5"	"0.5"	"0.5"	"0.5"	"0.5"	"0.5"	"0.5"	"0.5"	"0.5"	"0.5"	"0.5"	"0.5"	"0.5"	"0.5"	""	""	""	""	""	""	""	""	""	""	""	NA	NA	NA	NA	NA	"933"	NA	0	0	3000	600	3000	"sol-ichart-v1-post-gating"	"./"	"V1"	NA	NA	NA	"yes"	"OK"	"child"	81	"hearing"	"ball"	"none"	"known_sign"	31	"include"	">= 27 Months"	"Kids"	"C_T"	"1"	2	4	933	2	10	933	2	10	0.572463768115942	TRUE	TRUE	TRUE	"C_T"	"C_T"
"30009"	39	"F"	"sol-vanilla-1"	15	""	"birdy4R.pct"	""	"kitty4L.pct"	"l"	"birdy4R.pct"	"Vanilla"	"D"	2	600	1924	8000	"0.5"	"0.5"	"0.5"	"0.5"	"0.5"	"0.5"	"0.5"	"0.5"	"0.5"	"0.5"	"0.5"	"0.5"	"0.5"	"0.5"	"0.5"	"0.5"	"0.5"	"0.5"	"."	"."	"1"	"1"	"1"	"1"	"1"	"1"	"1"	"1"	"1"	"1"	"1"	"1"	"1"	"1"	"1"	"1"	"1"	"1"	"1"	"1"	"."	"."	"."	"0.5"	"0.5"	"0.5"	"0.5"	"0.5"	"0.5"	"0.5"	"0.5"	"0.5"	"0.5"	"0.5"	"."	"."	"0"	"0"	"0"	"0"	"0"	"0"	"0"	"0"	"0"	"0"	"0"	"0"	"0"	"0"	"0"	"0"	"0"	"0"	"0"	"0"	"0"	"0"	"0"	"0"	"0"	"0"	"."	"."	"."	"."	"1"	"1"	"1"	"1"	"1"	"1"	"1"	"1"	"1"	"1"	"1"	""	""	""	""	""	""	""	""	""	""	""	""	""	""	""	""	""	""	""	""	""	""	""	""	""	""	""	""	""	""	""	""	""	""	""	""	""	""	""	""	""	""	""	""	""	""	""	""	""	""	NA	NA	NA	NA	NA	"600"	NA	0	0	3000	600	3000	"sol-ichart-v1-post-gating"	"./"	"V1"	NA	NA	NA	"yes"	"OK"	"child"	81	"hearing"	"birdy"	"none"	"known_sign"	31	"include"	">= 27 Months"	"Kids"	"C_T"	"0"	5	11	1700	2	26	600	3	20	0.491935483870968	TRUE	TRUE	TRUE	"C_D"	"C_D"
"30009"	39	"F"	"sol-vanilla-1"	16	""	"teddy3.pct"	""	"doll4L.pct"	"r"	"doll4L.pct"	"Vanilla"	"A"	2	167	1891	8000	"1"	"1"	"1"	"1"	"1"	"."	"."	"0.5"	"0.5"	"0.5"	"0.5"	"0.5"	"0.5"	"0.5"	"0.5"	"0.5"	"0.5"	"0.5"	"0.5"	"0.5"	"0.5"	"0.5"	"0.5"	"."	"."	"0"	"0"	"0"	"0"	"0"	"0"	"0"	"0"	"0"	"0"	"0"	"."	"."	"0.5"	"0.5"	"0.5"	"0.5"	"0.5"	"0.5"	"0.5"	"0.5"	"0.5"	"0.5"	"0.5"	"0.5"	"0.5"	"."	"1"	"1"	"1"	"1"	"1"	"1"	"1"	"1"	"1"	"1"	"1"	"1"	"1"	"1"	"1"	"1"	"1"	"1"	"1"	"1"	"1"	"1"	"1"	"1"	"1"	"1"	"1"	"1"	"1"	"1"	"1"	"1"	"1"	"1"	"1"	"1"	"1"	"1"	"1"	"1"	"1"	"1"	"1"	"1"	"1"	"1"	"1"	"1"	"1"	"1"	"1"	"1"	"1"	"1"	"1"	"1"	"1"	"1"	"1"	"1"	"1"	"1"	"1"	"1"	"1"	"1"	""	""	""	""	""	""	""	""	""	""	""	""	""	""	""	""	""	""	""	""	""	""	""	""	""	""	""	""	""	NA	NA	NA	NA	NA	"767"	NA	0	0	3000	600	3000	"sol-ichart-v1-post-gating"	"./"	"V1"	NA	NA	NA	"yes"	"OK"	"child"	81	"hearing"	"doll"	"none"	"known_sign"	31	"include"	">= 27 Months"	"Kids"	"off_signer"	"1"	4	7	700	4	39	1200	2	11	0.705882352941177	TRUE	FALSE	TRUE	"off_signer"	"off_signer"
"30009"	39	"F"	"sol-vanilla-1"	18	""	"shoe4R.pct"	""	"ball4L.pct"	"l"	"shoe4R.pct"	"Vanilla"	"D"	2	533	3000	8000	"0.5"	"0.5"	"0.5"	"0.5"	"0.5"	"0.5"	"0.5"	"0.5"	"0.5"	"0.5"	"0.5"	"0.5"	"0.5"	"0.5"	"0.5"	"0.5"	"."	"."	"1"	"1"	"1"	"1"	"1"	"1"	"1"	"1"	"1"	"1"	"1"	"1"	"1"	"1"	"."	"."	"."	"0"	"0"	"0"	"0"	"0"	"."	"."	"1"	"1"	"1"	"1"	"1"	"1"	"1"	"1"	"1"	"."	"0"	"0"	"0"	"0"	"0"	"0"	"0"	"0"	"0"	"."	"."	"1"	"1"	"1"	"1"	"1"	"1"	"1"	"1"	"1"	"1"	"1"	"1"	"1"	"1"	"1"	"1"	"1"	"1"	"1"	"1"	"1"	"1"	"1"	"1"	"1"	"1"	"1"	"1"	"1"	"1"	"1"	"1"	"1"	"1"	"1"	"1"	"1"	"1"	"1"	"1"	"1"	"1"	"1"	"1"	"1"	"1"	"1"	"1"	"1"	"1"	"1"	"1"	"1"	"1"	"1"	"1"	"1"	"1"	"1"	"1"	"1"	"1"	"1"	"1"	"1"	"1"	"1"	"1"	"1"	"1"	"1"	"."	"."	"0.5"	"0.5"	"0.5"	"0.5"	"0.5"	"0.5"	"0.5"	"0.5"	"0.5"	""	""	NA	NA	NA	NA	NA	"533"	NA	0	0	3000	600	3000	"sol-ichart-v1-post-gating"	"./"	"V1"	NA	NA	NA	"yes"	"OK"	"child"	81	"hearing"	"shoe"	"none"	"known_sign"	31	"include"	">= 27 Months"	"Kids"	"C_T"	"1"	3	10	1067	2	28	2033	5	14	0.784615384615385	TRUE	FALSE	TRUE	"no_shift"	"no_shift"
"30009"	39	"F"	"sol-vanilla-1"	20	""	"kitty2R.pct"	""	"birdy2L.pct"	"r"	"birdy2L.pct"	"Vanilla"	"D"	2	433	1924	8000	"0.5"	"0.5"	"0.5"	"0.5"	"0.5"	"0.5"	"0.5"	"0.5"	"0.5"	"0.5"	"0.5"	"0.5"	"0.5"	"."	"."	"0"	"0"	"0"	"0"	"0"	"0"	"0"	"0"	"0"	"0"	"0"	"."	"."	"1"	"1"	"1"	"1"	"1"	"1"	"1"	"1"	"1"	"1"	"1"	"1"	"1"	"1"	"."	"."	"0"	"0"	"0"	"0"	"0"	"0"	"0"	"0"	"0"	"0"	"0"	"0"	"0"	"0"	"0"	"0"	"0"	"0"	"0"	"0"	"0"	"0"	"0"	"0"	"0"	"0"	"0"	"0"	"0"	"0"	"0"	"0"	"0"	"0"	"0"	"0"	"0"	"0"	"0"	"0"	"0"	"0"	"0"	"0"	"0"	"0"	"0"	"0"	"0"	"0"	"0"	"0"	""	""	""	""	""	""	""	""	""	""	""	""	""	""	""	""	""	""	""	""	""	""	""	""	""	""	""	""	""	""	""	""	""	""	""	""	""	""	""	""	""	""	""	""	""	""	""	""	""	""	""	NA	NA	NA	NA	NA	"433"	NA	0	0	3000	600	3000	"sol-ichart-v1-post-gating"	"./"	"V1"	NA	NA	NA	"yes"	"OK"	"child"	81	"hearing"	"birdy"	"none"	"known_sign"	31	"include"	">= 27 Months"	"Kids"	"C_D"	"0"	2	6	433	2	47	867	3	11	0.202898550724638	TRUE	FALSE	TRUE	"no_shift"	"no_shift"
"30009"	39	"F"	"sol-vanilla-1"	21	""	"book2R.pct"	""	"car2L.pct"	"l"	"book2R.pct"	"Vanilla"	"D"	1	1533	2165	8000	"0.5"	"0.5"	"0.5"	"0.5"	"0.5"	"0.5"	"0.5"	"0.5"	"0.5"	"0.5"	"0.5"	"0.5"	"0.5"	"0.5"	"0.5"	"0.5"	"0.5"	"0.5"	"0.5"	"0.5"	"0.5"	"0.5"	"0.5"	"0.5"	"0.5"	"0.5"	"0.5"	"0.5"	"0.5"	"0.5"	"0.5"	"0.5"	"0.5"	"0.5"	"0.5"	"0.5"	"0.5"	"0.5"	"0.5"	"0.5"	"0.5"	"0.5"	"0.5"	"0.5"	"0.5"	"0.5"	"."	"1"	"1"	"1"	"1"	"1"	"1"	"1"	"1"	"1"	"1"	"1"	"1"	"1"	"1"	"1"	"1"	"1"	"1"	"1"	"1"	"1"	"1"	"1"	"1"	"1"	"1"	"1"	"1"	"1"	"1"	"1"	"1"	"1"	"1"	"1"	"1"	"1"	"1"	"1"	"1"	"1"	"1"	"1"	"1"	"1"	"1"	"1"	"1"	"1"	"1"	"1"	"1"	"1"	"1"	"1"	"1"	"."	"."	"."	"0.5"	"0.5"	"0.5"	"0.5"	"0.5"	"0.5"	"0.5"	"0.5"	"0.5"	"0.5"	"0.5"	"0.5"	""	""	""	""	""	""	""	""	""	""	""	""	""	""	""	""	""	""	""	""	""	""	""	""	""	""	""	""	""	NA	NA	NA	NA	NA	"1533"	NA	0	0	3000	600	3000	"sol-ichart-v1-post-gating"	"./"	"V1"	NA	NA	NA	"yes"	"OK"	"child"	81	"hearing"	"book"	"none"	"known_sign"	31	"include"	">= 27 Months"	"Kids"	"C_T"	"1"	1	1	1533	1	44	1533	1	44	0.805555555555556	TRUE	TRUE	TRUE	"C_T"	"C_T"
"30009"	39	"F"	"sol-vanilla-1"	22	""	"ball2R.pct"	""	"shoe2L.pct"	"l"	"ball2R.pct"	"Vanilla"	"D"	2	767	2132	8000	"0.5"	"0.5"	"0.5"	"0.5"	"0.5"	"0.5"	"0.5"	"0.5"	"0.5"	"0.5"	"0.5"	"0.5"	"0.5"	"0.5"	"0.5"	"0.5"	"0.5"	"0.5"	"0.5"	"0.5"	"0.5"	"0.5"	"0.5"	"."	"."	"1"	"1"	"1"	"1"	"1"	"1"	"1"	"1"	"1"	"1"	"1"	"1"	"1"	"1"	"1"	"1"	"."	"0.5"	"0.5"	"0.5"	"0.5"	"0.5"	"0.5"	"0.5"	"."	"."	"0"	"0"	"0"	"0"	"0"	"0"	"0"	"0"	"0"	"0"	"0"	"0"	"0"	"0"	"0"	"0"	"0"	"0"	"0"	"0"	"0"	"0"	"0"	"0"	"0"	"0"	"0"	"0"	"0"	"0"	"0"	"0"	"0"	"0"	"0"	"0"	"0"	"0"	"0"	"0"	"0"	"0"	"0"	"0"	"0"	"0"	"0"	"0"	"0"	"0"	"0"	"0"	"0"	"0"	"0"	"0"	"0"	"0"	"0"	"0"	"0"	"0"	"."	"."	"."	"."	"."	"1"	"1"	"1"	"1"	"1"	"1"	"1"	"1"	"1"	"1"	"1"	"1"	"1"	"1"	"1"	"1"	"1"	"1"	"1"	""	""	""	""	""	""	""	""	""	""	NA	NA	NA	NA	NA	"767"	NA	0	0	3000	600	3000	"sol-ichart-v1-post-gating"	"./"	"V1"	NA	NA	NA	"yes"	"OK"	"child"	81	"hearing"	"ball"	"none"	"known_sign"	31	"include"	">= 27 Months"	"Kids"	"C_T"	"0"	3	5	1600	2	40	767	2	16	0.323529411764706	TRUE	TRUE	TRUE	"C_T"	"C_T"
"30009"	39	"F"	"sol-vanilla-1"	23	""	"doll2R.pct"	""	"teddy1R.pct"	"r"	"teddy1R.pct"	"Vanilla"	"D"	1	800	1957	8000	"0.5"	"0.5"	"0.5"	"0.5"	"0.5"	"0.5"	"0.5"	"0.5"	"0.5"	"0.5"	"0.5"	"0.5"	"0.5"	"0.5"	"0.5"	"0.5"	"0.5"	"0.5"	"0.5"	"0.5"	"0.5"	"0.5"	"0.5"	"0.5"	"."	"1"	"1"	"1"	"1"	"1"	"1"	"1"	"1"	"1"	"1"	"1"	"1"	"1"	"1"	"1"	"1"	"1"	"1"	"1"	"1"	"1"	"1"	"1"	"1"	"1"	"1"	"1"	"1"	"1"	"1"	"1"	"1"	"1"	"1"	"1"	"1"	"1"	"1"	"1"	"1"	"1"	"1"	"1"	"1"	"1"	"1"	"1"	"1"	"1"	"1"	"1"	"1"	"1"	"1"	"1"	"1"	"1"	"1"	"1"	"1"	"1"	"1"	"1"	"1"	"1"	"1"	"1"	"1"	"1"	"1"	"1"	"1"	"1"	"1"	"1"	"1"	"1"	"1"	"1"	"1"	"1"	"1"	"1"	"1"	"1"	"1"	"1"	"1"	"1"	"1"	"1"	"1"	"1"	"1"	"1"	"1"	"1"	"."	"."	"0"	"0"	""	""	""	""	""	""	""	""	""	""	""	""	""	""	""	""	""	""	""	""	""	NA	NA	NA	NA	NA	"800"	NA	0	0	3000	600	3000	"sol-ichart-v1-post-gating"	"./"	"V1"	NA	NA	NA	"yes"	"OK"	"child"	81	"hearing"	"teddy"	"none"	"known_sign"	31	"include"	">= 27 Months"	"Kids"	"C_T"	"1"	1	1	800	1	66	800	1	66	0.958333333333333	TRUE	TRUE	TRUE	"C_T"	"C_T"
"30009"	39	"F"	"sol-vanilla-1"	24	""	"book3R.pct"	""	"car3L.pct"	"r"	"car3L.pct"	"Vanilla"	"A"	2	0	1759	8000	"."	"."	"."	"."	"0.5"	"0.5"	"0.5"	"0.5"	"0.5"	"0.5"	"0.5"	"0.5"	"0.5"	"0.5"	"0.5"	"0.5"	"0.5"	"0.5"	"0.5"	"0.5"	"0.5"	"0.5"	"."	"."	"0"	"0"	"0"	"."	"."	"1"	"1"	"1"	"1"	"1"	"1"	"1"	"1"	"1"	"1"	"1"	"1"	"1"	"1"	"1"	"1"	"1"	"1"	"1"	"1"	"1"	"1"	"1"	"1"	"1"	"1"	"1"	"1"	"1"	"1"	"1"	"1"	"1"	"1"	"1"	"1"	"1"	"1"	"1"	"1"	"1"	"1"	"1"	"1"	"1"	"1"	"1"	"1"	"1"	"1"	"1"	"1"	"1"	"1"	"1"	"1"	"1"	"1"	"1"	"1"	"1"	"1"	"1"	"1"	"1"	"1"	"1"	"1"	"1"	"1"	"1"	"1"	"1"	"1"	"1"	"1"	"1"	"1"	"1"	"1"	"1"	""	""	""	""	""	""	""	""	""	""	""	""	""	""	""	""	""	""	""	""	""	""	""	""	""	""	""	""	""	""	""	""	""	""	""	""	""	NA	NA	NA	NA	NA	"900"	NA	0	0	3000	600	3000	"sol-ichart-v1-post-gating"	"./"	"V1"	NA	NA	NA	"yes"	"OK"	"child"	81	"hearing"	"car"	"none"	"known_sign"	31	"include"	">= 27 Months"	"Kids"	"off_signer"	"1"	6	8	600	6	62	900	2	3	0.927536231884058	TRUE	FALSE	TRUE	"off_signer"	"off_signer"
"30009"	39	"F"	"sol-vanilla-1"	25	""	"kitty3R.pct"	""	"birdy3L.pct"	"l"	"kitty3R.pct"	"Vanilla"	"D"	2	933	2132	8000	"0.5"	"0.5"	"0.5"	"0.5"	"0.5"	"0.5"	"0.5"	"0.5"	"0.5"	"0.5"	"0.5"	"0.5"	"0.5"	"0.5"	"0.5"	"0.5"	"0.5"	"0.5"	"0.5"	"0.5"	"0.5"	"0.5"	"0.5"	"0.5"	"0.5"	"0.5"	"0.5"	"0.5"	"."	"."	"0"	"0"	"0"	"0"	"0"	"0"	"0"	"0"	"0"	"0"	"0"	"0"	"0"	"0"	"0"	"0"	"0"	"0"	"0"	"0"	"0"	"0"	"0"	"0"	"0"	"0"	"0"	"0"	"0"	"0"	"0"	"0"	"0"	"0"	"0"	"0"	"0"	"0"	"0"	"0"	"."	"."	"."	"."	"."	"0.5"	"0.5"	"0.5"	"."	"."	"1"	"1"	"1"	"1"	"1"	"1"	"1"	"1"	"1"	"1"	"1"	"1"	"1"	"1"	"1"	"1"	"1"	"1"	"1"	"."	"."	"."	"."	"."	"."	"0.5"	"0.5"	"0.5"	"."	"0"	"0"	"0"	"0"	"0"	"0"	"0"	"0"	"0"	"."	"."	"."	"."	"."	"."	"."	"."	"."	"."	"."	"."	"."	"."	"."	"."	"."	"."	"."	"."	"."	"."	""	""	""	""	""	""	""	NA	NA	NA	NA	NA	"933"	NA	0	0	3000	600	3000	"sol-ichart-v1-post-gating"	"./"	"V1"	NA	NA	NA	"yes"	"OK"	"child"	81	"hearing"	"kitty"	"none"	"known_sign"	31	"include"	">= 27 Months"	"Kids"	"C_D"	"0"	7	9	2433	2	40	2333	2	40	0.2734375	TRUE	TRUE	TRUE	"C_D"	"C_D"
"30009"	39	"F"	"sol-vanilla-1"	26	""	"ball3R.pct"	""	"shoe3L.pct"	"r"	"shoe3L.pct"	"Vanilla"	"D"	3	700	3000	8000	"0.5"	"0.5"	"0.5"	"0.5"	"0.5"	"0.5"	"0.5"	"0.5"	"0.5"	"0.5"	"0.5"	"0.5"	"0.5"	"0.5"	"0.5"	"0.5"	"0.5"	"0.5"	"0.5"	"0.5"	"0.5"	"."	"."	"."	"0"	"0"	"0"	"0"	"."	"."	"1"	"1"	"1"	"1"	"1"	"1"	"1"	"1"	"1"	"1"	"1"	"1"	"1"	"1"	"1"	"1"	"1"	"1"	"1"	"1"	"1"	"1"	"1"	"1"	"1"	"1"	"1"	"1"	"1"	"1"	"1"	"1"	"1"	"1"	"1"	"1"	"."	"."	"0"	"0"	"0"	"0"	"0"	"0"	"0"	"0"	"0"	"0"	"0"	"0"	"0"	"0"	"0"	"0"	"0"	"."	"."	"0.5"	"0.5"	"0.5"	"0.5"	"0.5"	"0.5"	"0.5"	"0.5"	"0.5"	"0.5"	"0.5"	"0.5"	"0.5"	"0.5"	"0.5"	"0.5"	"0.5"	"0.5"	"0.5"	"0.5"	"0.5"	"0.5"	"0.5"	"0.5"	"0.5"	"0.5"	"0.5"	"0.5"	"0.5"	"0.5"	"0.5"	"0.5"	"0.5"	"0.5"	"0.5"	"0.5"	"0.5"	"0.5"	"0.5"	"0.5"	"0.5"	"0.5"	"0.5"	"0.5"	"0.5"	"0.5"	"0.5"	"0.5"	"0.5"	"0.5"	"0.5"	"0.5"	"0.5"	"0.5"	"0.5"	"0.5"	"0.5"	"0.5"	"0.5"	""	NA	NA	NA	NA	NA	"700"	NA	0	0	3000	600	3000	"sol-ichart-v1-post-gating"	"./"	"V1"	NA	NA	NA	"yes"	"OK"	"child"	81	"hearing"	"shoe"	"none"	"known_sign"	31	"include"	">= 27 Months"	"Kids"	"C_D"	"1"	3	9	700	3	36	933	4	4	0.6171875	TRUE	TRUE	TRUE	"C_D"	"C_D"
"30009"	39	"F"	"sol-vanilla-1"	27	""	"doll3R.pct"	""	"teddy2.pct"	"l"	"doll3R.pct"	"Vanilla"	"D"	1	1533	1924	8000	"0.5"	"0.5"	"0.5"	"0.5"	"0.5"	"0.5"	"0.5"	"0.5"	"0.5"	"0.5"	"0.5"	"0.5"	"0.5"	"0.5"	"0.5"	"0.5"	"0.5"	"0.5"	"0.5"	"0.5"	"0.5"	"0.5"	"0.5"	"0.5"	"0.5"	"0.5"	"0.5"	"0.5"	"0.5"	"0.5"	"0.5"	"0.5"	"0.5"	"0.5"	"0.5"	"0.5"	"0.5"	"0.5"	"0.5"	"0.5"	"0.5"	"0.5"	"0.5"	"0.5"	"0.5"	"0.5"	"."	"0"	"0"	"0"	"0"	"0"	"0"	"."	"."	"."	"1"	"1"	"1"	"1"	"1"	"1"	"1"	"1"	"1"	"1"	"1"	"1"	"1"	"1"	"1"	"1"	"1"	"1"	"1"	"1"	"1"	"1"	"1"	"1"	"1"	"1"	"1"	"1"	"1"	"1"	"."	"."	"."	"0"	"0"	"0"	"0"	"0"	"0"	"0"	"0"	"0"	"0"	"0"	"0"	"0"	"0"	"0"	"0"	"0"	"0"	"0"	"0"	"0"	"0"	"0"	"0"	"."	"1"	"1"	"1"	""	""	""	""	""	""	""	""	""	""	""	""	""	""	""	""	""	""	""	""	""	""	""	""	""	""	""	""	""	""	NA	NA	NA	NA	NA	"1533"	NA	0	0	3000	600	3000	"sol-ichart-v1-post-gating"	"./"	"V1"	NA	NA	NA	"yes"	"OK"	"child"	81	"hearing"	"doll"	"none"	"known_sign"	31	"include"	">= 27 Months"	"Kids"	"C_D"	"1"	3	7	1767	1	30	1767	3	6	0.666666666666667	TRUE	TRUE	TRUE	"C_D"	"C_D"
"30009"	39	"F"	"sol-vanilla-1"	29	""	"birdy1R.pct"	""	"kitty1L.pct"	"r"	"kitty1L.pct"	"Vanilla"	"A"	2	867	2132	8000	"0"	"0"	"0"	"0"	"0"	"0"	"0"	"0"	"0"	"0"	"0"	"0"	"0"	"0"	"0"	"0"	"0"	"0"	"0"	"0"	"0"	"0"	"0"	"0"	"0"	"0"	"."	"."	"."	"0.5"	"0.5"	"0.5"	"0.5"	"0.5"	"0.5"	"0.5"	"0.5"	"0.5"	"0.5"	"0.5"	"0.5"	"0.5"	"0.5"	"0.5"	"0.5"	"0.5"	"0.5"	"0.5"	"0.5"	"0.5"	"0.5"	"0.5"	"0.5"	"0.5"	"0.5"	"0.5"	"0.5"	"0.5"	"0.5"	"0.5"	"0.5"	"0.5"	"0.5"	"0.5"	"0.5"	"0.5"	"0.5"	"0.5"	"0.5"	"0.5"	"0.5"	"0.5"	"0.5"	"0.5"	"0.5"	"0.5"	"0.5"	"0.5"	"0.5"	"0.5"	"0.5"	"0.5"	"0.5"	"0.5"	"."	"."	"1"	"1"	"1"	"1"	"1"	"1"	"1"	"1"	"1"	"1"	"1"	"1"	"1"	"1"	"1"	"1"	"1"	"1"	"1"	"1"	"1"	"1"	"1"	"1"	"1"	"1"	"1"	"1"	"1"	"1"	"1"	"1"	"1"	"1"	"1"	"1"	"1"	"1"	"1"	"1"	"1"	"1"	"1"	"1"	"1"	"1"	"1"	"1"	"1"	"1"	"1"	"1"	"1"	"1"	"1"	""	""	""	""	""	""	NA	NA	NA	NA	NA	"2800"	NA	0	0	3000	600	3000	"sol-ichart-v1-post-gating"	"./"	"V1"	NA	NA	NA	"yes"	"OK"	"child"	81	"hearing"	"kitty"	"none"	"known_sign"	31	"include"	">= 27 Months"	"Kids"	"off_signer"	"0"	5	5	2700	5	26	867	1	5	0.477941176470588	TRUE	TRUE	TRUE	"off_signer"	"off_signer"
"30009"	39	"F"	"sol-vanilla-1"	30	""	"shoe1R.pct"	""	"ball1L.pct"	"r"	"ball1L.pct"	"Vanilla"	"A"	NA	0	1825	8000	"."	"."	"."	"."	"."	"."	"."	"."	"."	"0.5"	"0.5"	"0.5"	"0.5"	"0.5"	"0.5"	"0.5"	"0.5"	"0.5"	"0.5"	"0.5"	"0.5"	"0.5"	"0.5"	"0.5"	"0.5"	"0.5"	"0.5"	"0.5"	"0.5"	"0.5"	"0.5"	"0.5"	"0.5"	"0.5"	"0.5"	"0.5"	"0.5"	"0.5"	"0.5"	"0.5"	"0.5"	"0.5"	"0.5"	"0.5"	"."	"."	"0"	"0"	"0"	"0"	"0"	"0"	"0"	"0"	"0"	"0"	"0"	"0"	"0"	"0"	"0"	"0"	"0"	"0"	"0"	"0"	"0"	"0"	"0"	"0"	"0"	"0"	"0"	"0"	"0"	"0"	"0"	"0"	"0"	"0"	"0"	"0"	"0"	"0"	"0"	"0"	"0"	"0"	"0"	"0"	"0"	"0"	"0"	"0"	"0"	"0"	"0"	"0"	"0"	""	""	""	""	""	""	""	""	""	""	""	""	""	""	""	""	""	""	""	""	""	""	""	""	""	""	""	""	""	""	""	""	""	""	""	""	""	""	""	""	""	""	""	""	""	""	""	""	NA	NA	NA	NA	NA	""	NA	0	0	3000	600	3000	"sol-ichart-v1-post-gating"	"./"	"V1"	NA	NA	NA	"yes"	"OK"	"child"	81	"hearing"	"ball"	"none"	"known_sign"	31	"include"	">= 27 Months"	"Kids"	"off_signer"	"0"	11	11	1167	11	45	NA	1	45	0.183098591549296	TRUE	FALSE	TRUE	"off_signer"	"off_signer"
"30009"	39	"F"	"sol-vanilla-1"	32	""	"birdy4R.pct"	""	"kitty4L.pct"	"l"	"birdy4R.pct"	"Vanilla"	"D"	2	33	1924	8000	"0.5"	"."	"."	"."	"."	"."	"."	"."	"."	"."	"."	"."	"-"	"."	"0.5"	"0.5"	"0.5"	"0.5"	"0.5"	"0.5"	"0.5"	"0.5"	"0.5"	"0.5"	"0.5"	"0.5"	"0.5"	"0.5"	"0.5"	"0.5"	"0.5"	"0.5"	"0.5"	"0.5"	"0.5"	"."	"."	"1"	"1"	"1"	"1"	"1"	"1"	"1"	"1"	"1"	"1"	"1"	"1"	"1"	"1"	"."	"."	"0"	"0"	"0"	"0"	"0"	"0"	"0"	"0"	"0"	"0"	"0"	"0"	"0"	"0"	"0"	"0"	"0"	"0"	"0"	"0"	"0"	"0"	"0"	"0"	"0"	"0"	"0"	"0"	"0"	"0"	"0"	"0"	"0"	"0"	"0"	"0"	"0"	"0"	"0"	"0"	"0"	"0"	""	""	""	""	""	""	""	""	""	""	""	""	""	""	""	""	""	""	""	""	""	""	""	""	""	""	""	""	""	""	""	""	""	""	""	""	""	""	""	""	""	""	""	""	""	""	""	""	""	""	""	""	NA	NA	NA	NA	NA	"1167"	NA	0	0	3000	600	3000	"sol-ichart-v1-post-gating"	"./"	"V1"	NA	NA	NA	"yes"	"OK"	"child"	81	"hearing"	"birdy"	"none"	"known_sign"	31	"include"	">= 27 Months"	"Kids"	"C_C"	"0"	15	17	733	15	38	33	2	14	0.326086956521739	TRUE	FALSE	TRUE	"C_T"	"C_T"
"30009"	39	"F"	"sol-vanilla-1"	35	""	"teddy1R.pct"	""	"doll4L.pct"	"r"	"doll4L.pct"	"Vanilla"	"D"	2	1867	1924	8000	"0.5"	"0.5"	"0.5"	"0.5"	"0.5"	"0.5"	"0.5"	"0.5"	"0.5"	"0.5"	"0.5"	"0.5"	"0.5"	"0.5"	"0.5"	"0.5"	"0.5"	"0.5"	"0.5"	"0.5"	"0.5"	"0.5"	"0.5"	"0.5"	"0.5"	"0.5"	"0.5"	"0.5"	"0.5"	"0.5"	"0.5"	"0.5"	"0.5"	"0.5"	"0.5"	"0.5"	"0.5"	"0.5"	"0.5"	"0.5"	"0.5"	"0.5"	"0.5"	"0.5"	"0.5"	"0.5"	"0.5"	"0.5"	"0.5"	"0.5"	"0.5"	"0.5"	"0.5"	"0.5"	"0.5"	"0.5"	"."	"."	"1"	"1"	"1"	"1"	"1"	"1"	"1"	"1"	"1"	"1"	"1"	"1"	"1"	"1"	"1"	"1"	"1"	"1"	"1"	"1"	"1"	"1"	"1"	"1"	"1"	"1"	"1"	"1"	"1"	"1"	"1"	"1"	"1"	"1"	"1"	"1"	"1"	"1"	"1"	"1"	"1"	"1"	"1"	"."	"."	"0"	"0"	"0"	"0"	"0"	"0"	"0"	"0"	"0"	"0"	"0"	""	""	""	""	""	""	""	""	""	""	""	""	""	""	""	""	""	""	""	""	""	""	""	""	""	""	""	""	""	""	""	""	""	NA	NA	NA	NA	NA	"1867"	NA	0	0	3000	600	3000	"sol-ichart-v1-post-gating"	"./"	"V1"	NA	NA	NA	"yes"	"OK"	"child"	81	"hearing"	"doll"	"none"	"known_sign"	31	"include"	">= 27 Months"	"Kids"	"C_T"	"1"	2	2	1867	2	33	1867	1	33	0.732394366197183	TRUE	TRUE	TRUE	"C_T"	"C_T"
"30010"	44	"F"	"sol-vanilla-2"	2	""	"teddy1R.pct"	""	"doll1L.pct"	"r"	"doll1L.pct"	"Vanilla"	"D"	1	1133	1891	8000	"0.5"	"0.5"	"0.5"	"0.5"	"0.5"	"0.5"	"0.5"	"0.5"	"0.5"	"0.5"	"0.5"	"0.5"	"0.5"	"0.5"	"0.5"	"0.5"	"0.5"	"0.5"	"0.5"	"0.5"	"0.5"	"0.5"	"0.5"	"0.5"	"0.5"	"0.5"	"0.5"	"0.5"	"0.5"	"0.5"	"0.5"	"0.5"	"0.5"	"0.5"	"."	"1"	"1"	"1"	"1"	"1"	"1"	"1"	"1"	"1"	"1"	"1"	"1"	"1"	"1"	"1"	"1"	"1"	"1"	"1"	"1"	"1"	"1"	"1"	"1"	"1"	"1"	"1"	"1"	"1"	"1"	"1"	"1"	"1"	"1"	"1"	"1"	"1"	"1"	"1"	"1"	"."	"."	"."	"."	"0.5"	"0.5"	"0.5"	"0.5"	"0.5"	"0.5"	"0.5"	"0.5"	"0.5"	"0.5"	"0.5"	"0.5"	"0.5"	"0.5"	"0.5"	"0.5"	"0.5"	"0.5"	"0.5"	"0.5"	"0.5"	"0.5"	"."	"1"	"1"	"1"	"1"	"1"	"1"	"1"	"1"	"1"	"1"	"1"	"1"	"1"	"1"	"1"	"1"	"1"	"1"	"1"	""	""	""	""	""	""	""	""	""	""	""	""	""	""	""	""	""	""	""	""	""	""	""	""	""	""	NA	NA	NA	NA	NA	"1133"	NA	0	0	3000	600	3000	"sol-ichart-v1-post-gating"	"./"	"V1"	NA	NA	NA	"yes"	"OK"	"child"	77	"hearing"	"doll"	"none"	"known_sign"	32	"include"	">= 27 Months"	"Kids"	"C_T"	"1"	4	5	2500	1	40	1133	2	40	0.794117647058823	TRUE	TRUE	TRUE	"C_T"	"C_T"
"30010"	44	"F"	"sol-vanilla-2"	3	""	"car1R.pct"	""	"book1L.pct"	"l"	"car1R.pct"	"Vanilla"	"D"	1	1000	1759	8000	"0.5"	"0.5"	"0.5"	"0.5"	"0.5"	"0.5"	"0.5"	"0.5"	"0.5"	"0.5"	"0.5"	"0.5"	"0.5"	"0.5"	"0.5"	"0.5"	"0.5"	"0.5"	"0.5"	"0.5"	"0.5"	"0.5"	"0.5"	"0.5"	"0.5"	"0.5"	"0.5"	"0.5"	"0.5"	"0.5"	"."	"1"	"1"	"1"	"1"	"1"	"1"	"1"	"1"	"1"	"1"	"1"	"1"	"1"	"1"	"1"	"1"	"1"	"1"	"1"	"1"	"1"	"1"	"1"	"1"	"1"	"1"	"1"	"1"	"1"	"1"	"1"	"1"	"1"	"1"	"1"	"1"	"1"	"1"	"1"	"1"	"1"	"1"	"1"	"1"	"1"	"1"	"1"	"1"	"1"	"1"	"1"	"1"	"1"	"1"	"1"	"1"	"1"	"."	"0.5"	"0.5"	"0.5"	"0.5"	"0.5"	"0.5"	"0.5"	"0.5"	"0.5"	"0.5"	"0.5"	"0.5"	"0.5"	"0.5"	"0.5"	"0.5"	"0.5"	"0.5"	"0.5"	"0.5"	"0.5"	"0.5"	"0.5"	""	""	""	""	""	""	""	""	""	""	""	""	""	""	""	""	""	""	""	""	""	""	""	""	""	""	""	""	""	""	""	""	""	""	""	NA	NA	NA	NA	NA	"1000"	NA	0	0	3000	600	3000	"sol-ichart-v1-post-gating"	"./"	"V1"	NA	NA	NA	"yes"	"OK"	"child"	77	"hearing"	"car"	"none"	"known_sign"	32	"include"	">= 27 Months"	"Kids"	"C_T"	"1"	1	2	1000	1	57	1000	2	57	0.901408450704225	TRUE	TRUE	TRUE	"C_T"	"C_T"
"30010"	44	"F"	"sol-vanilla-2"	4	""	"shoe1R.pct"	""	"ball1L.pct"	"r"	"ball1L.pct"	"Vanilla"	"D"	2	1333	2132	8000	"0.5"	"0.5"	"0.5"	"0.5"	"0.5"	"0.5"	"0.5"	"0.5"	"0.5"	"0.5"	"0.5"	"0.5"	"0.5"	"0.5"	"0.5"	"0.5"	"0.5"	"0.5"	"0.5"	"0.5"	"0.5"	"0.5"	"0.5"	"0.5"	"0.5"	"0.5"	"0.5"	"0.5"	"0.5"	"0.5"	"0.5"	"0.5"	"0.5"	"0.5"	"0.5"	"0.5"	"0.5"	"0.5"	"0.5"	"0.5"	"."	"."	"1"	"1"	"1"	"1"	"1"	"1"	"1"	"1"	"1"	"1"	"1"	"1"	"1"	"1"	"1"	"1"	"1"	"1"	"1"	"1"	"1"	"1"	"1"	"1"	"1"	"1"	"1"	"1"	"1"	"1"	"1"	"1"	"1"	"1"	"1"	"1"	"1"	"1"	"1"	"1"	"1"	"1"	"1"	"1"	"1"	"1"	"1"	"1"	"1"	"."	"0.5"	"0.5"	"0.5"	"0.5"	"0.5"	"0.5"	"0.5"	"0.5"	"0.5"	"0.5"	"0.5"	"0.5"	"0.5"	"0.5"	"0.5"	"0.5"	"0.5"	"0.5"	"0.5"	"0.5"	"0.5"	"0.5"	"0.5"	"0.5"	"0.5"	"0.5"	"0.5"	"0.5"	"0.5"	"0.5"	"0.5"	"0.5"	"0.5"	"0.5"	"0.5"	"0.5"	"0.5"	"0.5"	"0.5"	"0.5"	"0.5"	"0.5"	"0.5"	"0.5"	"0.5"	"0.5"	""	""	""	""	""	""	""	""	""	NA	NA	NA	NA	NA	"1333"	NA	0	0	3000	600	3000	"sol-ichart-v1-post-gating"	"./"	"V1"	NA	NA	NA	"yes"	"OK"	"child"	77	"hearing"	"ball"	"none"	"known_sign"	32	"include"	">= 27 Months"	"Kids"	"C_T"	"1"	2	2	1333	2	49	1333	1	49	0.845070422535211	TRUE	TRUE	TRUE	"C_T"	"C_T"
"30010"	44	"F"	"sol-vanilla-2"	5	""	"teddy3.pct"	""	"doll2L.pct"	"l"	"teddy3.pct"	"Vanilla"	"D"	2	967	1957	8000	"0.5"	"0.5"	"0.5"	"0.5"	"0.5"	"0.5"	"0.5"	"0.5"	"0.5"	"0.5"	"0.5"	"0.5"	"0.5"	"0.5"	"0.5"	"0.5"	"0.5"	"0.5"	"0.5"	"0.5"	"0.5"	"0.5"	"0.5"	"0.5"	"0.5"	"0.5"	"0.5"	"0.5"	"0.5"	"."	"."	"1"	"1"	"1"	"1"	"1"	"1"	"1"	"1"	"1"	"1"	"1"	"1"	"1"	"1"	"1"	"1"	"1"	"1"	"1"	"1"	"1"	"1"	"1"	"1"	"1"	"1"	"1"	"1"	"1"	"1"	"1"	"1"	"1"	"1"	"1"	"1"	"1"	"1"	"1"	"1"	"1"	"1"	"1"	"1"	"1"	"1"	"1"	"1"	"1"	"1"	"1"	"1"	"1"	"1"	"."	"."	"0.5"	"0.5"	"0.5"	"0.5"	"0.5"	"0.5"	"0.5"	"0.5"	"0.5"	"0.5"	"0.5"	"0.5"	"0.5"	"0.5"	"0.5"	"0.5"	"0.5"	"0.5"	"0.5"	"0.5"	"0.5"	"0.5"	"0.5"	"0.5"	"0.5"	"0.5"	"0.5"	"0.5"	"0.5"	"0.5"	"0.5"	"0.5"	"0.5"	"0.5"	"0.5"	"0.5"	"0.5"	"0.5"	"0.5"	"0.5"	"0.5"	""	""	""	""	""	""	""	""	""	""	""	""	""	""	""	""	""	""	""	NA	NA	NA	NA	NA	"967"	NA	0	0	3000	600	3000	"sol-ichart-v1-post-gating"	"./"	"V1"	NA	NA	NA	"yes"	"OK"	"child"	77	"hearing"	"teddy"	"none"	"known_sign"	32	"include"	">= 27 Months"	"Kids"	"C_T"	"1"	2	4	967	2	54	967	2	54	0.891304347826087	TRUE	TRUE	TRUE	"C_T"	"C_T"
"30010"	44	"F"	"sol-vanilla-2"	6	""	"shoe2R.pct"	""	"ball2L.pct"	"l"	"shoe2R.pct"	"Vanilla"	"D"	1	1000	1759	8000	"0.5"	"0.5"	"0.5"	"0.5"	"0.5"	"0.5"	"0.5"	"0.5"	"0.5"	"0.5"	"0.5"	"0.5"	"0.5"	"0.5"	"0.5"	"0.5"	"0.5"	"0.5"	"0.5"	"0.5"	"0.5"	"0.5"	"0.5"	"0.5"	"0.5"	"0.5"	"0.5"	"0.5"	"0.5"	"0.5"	"."	"1"	"1"	"1"	"1"	"1"	"1"	"1"	"1"	"1"	"1"	"1"	"1"	"1"	"1"	"1"	"1"	"1"	"1"	"1"	"1"	"1"	"1"	"1"	"1"	"1"	"1"	"1"	"1"	"1"	"1"	"1"	"1"	"1"	"1"	"1"	"1"	"1"	"."	"."	"0.5"	"0.5"	"0.5"	"0.5"	"0.5"	"0.5"	"0.5"	"0.5"	"0.5"	"0.5"	"0.5"	"0.5"	"0.5"	"0.5"	"0.5"	"0.5"	"."	"."	"1"	"1"	"1"	"1"	"1"	"1"	"1"	"1"	"1"	"1"	"1"	"1"	"1"	"1"	"1"	"1"	"1"	"1"	"1"	"1"	"1"	"1"	"1"	"1"	"1"	"1"	"1"	"1"	"1"	"1"	"1"	"1"	"1"	"1"	"1"	"1"	"1"	""	""	""	""	""	""	""	""	""	""	""	""	""	""	""	""	""	""	""	""	""	""	NA	NA	NA	NA	NA	"1000"	NA	0	0	3000	600	3000	"sol-ichart-v1-post-gating"	"./"	"V1"	NA	NA	NA	"yes"	"OK"	"child"	77	"hearing"	"shoe"	"none"	"known_sign"	32	"include"	">= 27 Months"	"Kids"	"C_T"	"1"	4	5	2800	1	37	1000	2	37	0.794117647058823	TRUE	TRUE	TRUE	"C_T"	"C_T"
"30010"	44	"F"	"sol-vanilla-2"	7	""	"birdy1R.pct"	""	"kitty1L.pct"	"l"	"birdy1R.pct"	"Vanilla"	"D"	2	1133	1792	8000	"0.5"	"0.5"	"0.5"	"0.5"	"0.5"	"0.5"	"0.5"	"0.5"	"0.5"	"0.5"	"0.5"	"0.5"	"0.5"	"0.5"	"0.5"	"0.5"	"0.5"	"0.5"	"0.5"	"0.5"	"0.5"	"0.5"	"0.5"	"0.5"	"0.5"	"0.5"	"0.5"	"0.5"	"0.5"	"0.5"	"0.5"	"0.5"	"0.5"	"0.5"	"."	"."	"1"	"1"	"1"	"1"	"1"	"1"	"1"	"1"	"1"	"1"	"1"	"1"	"1"	"1"	"1"	"1"	"1"	"1"	"1"	"1"	"1"	"1"	"1"	"1"	"1"	"1"	"1"	"1"	"1"	"1"	"1"	"1"	"1"	"1"	"1"	"1"	"1"	"1"	"1"	"1"	"1"	"1"	"1"	"1"	"1"	"1"	"1"	"1"	"1"	"1"	"1"	"1"	"1"	"1"	"1"	"1"	"1"	"1"	"1"	"1"	"1"	"1"	"."	"."	"0.5"	"0.5"	"0.5"	"0.5"	"0.5"	""	""	""	""	""	""	""	""	""	""	""	""	""	""	""	""	""	""	""	""	""	""	""	""	""	""	""	""	""	""	""	""	""	""	""	""	""	""	""	""	""	""	NA	NA	NA	NA	NA	"1133"	NA	0	0	3000	600	3000	"sol-ichart-v1-post-gating"	"./"	"V1"	NA	NA	NA	"yes"	"OK"	"child"	77	"hearing"	"birdy"	"none"	"known_sign"	32	"include"	">= 27 Months"	"Kids"	"C_T"	"1"	2	2	1133	2	55	1133	1	55	0.887323943661972	TRUE	TRUE	TRUE	"C_T"	"C_T"
"30010"	44	"F"	"sol-vanilla-2"	8	""	"car2R.pct"	""	"book2L.pct"	"r"	"book2L.pct"	"Vanilla"	"D"	2	933	2132	8000	"0.5"	"0.5"	"0.5"	"0.5"	"0.5"	"0.5"	"0.5"	"0.5"	"0.5"	"0.5"	"0.5"	"0.5"	"0.5"	"0.5"	"0.5"	"0.5"	"0.5"	"0.5"	"0.5"	"0.5"	"0.5"	"0.5"	"0.5"	"0.5"	"0.5"	"0.5"	"0.5"	"0.5"	"."	"."	"0"	"0"	"0"	"0"	"0"	"0"	"0"	"0"	"0"	"0"	"."	"."	"1"	"1"	"1"	"1"	"1"	"1"	"1"	"1"	"1"	"1"	"1"	"1"	"1"	"1"	"1"	"1"	"1"	"1"	"1"	"1"	"1"	"1"	"1"	"1"	"1"	"1"	"1"	"1"	"1"	"1"	"1"	"1"	"1"	"1"	"1"	"1"	"1"	"1"	"1"	"1"	"1"	"1"	"1"	"1"	"1"	"1"	"."	"."	"0.5"	"0.5"	"0.5"	"0.5"	"0.5"	"0.5"	"0.5"	"0.5"	"0.5"	"0.5"	"0.5"	"0.5"	"0.5"	"0.5"	"0.5"	"0.5"	"0.5"	"0.5"	"0.5"	"0.5"	"0.5"	"0.5"	"0.5"	"0.5"	"0.5"	"0.5"	""	""	""	""	""	""	""	""	""	""	""	""	""	""	""	""	""	""	""	""	""	""	""	""	""	""	""	""	""	""	""	NA	NA	NA	NA	NA	"933"	NA	0	0	3000	600	3000	"sol-ichart-v1-post-gating"	"./"	"V1"	NA	NA	NA	"yes"	"OK"	"child"	77	"hearing"	"book"	"none"	"known_sign"	32	"include"	">= 27 Months"	"Kids"	"C_D"	"1"	2	6	933	2	46	1333	3	10	0.76865671641791	TRUE	TRUE	TRUE	"C_D"	"C_D"
"30010"	44	"F"	"sol-vanilla-2"	9	""	"birdy2R.pct"	""	"kitty2L.pct"	"r"	"kitty2L.pct"	"Vanilla"	"D"	2	1400	3132	8000	"0.5"	"0.5"	"0.5"	"0.5"	"0.5"	"0.5"	"0.5"	"0.5"	"0.5"	"0.5"	"0.5"	"0.5"	"0.5"	"0.5"	"0.5"	"0.5"	"0.5"	"0.5"	"0.5"	"0.5"	"0.5"	"0.5"	"0.5"	"0.5"	"0.5"	"0.5"	"0.5"	"0.5"	"0.5"	"0.5"	"0.5"	"0.5"	"0.5"	"0.5"	"0.5"	"0.5"	"0.5"	"0.5"	"0.5"	"0.5"	"0.5"	"0.5"	"."	"."	"0"	"0"	"0"	"0"	"0"	"0"	"0"	"0"	"."	"."	"1"	"1"	"1"	"1"	"1"	"1"	"1"	"1"	"1"	"1"	"1"	"1"	"1"	"1"	"1"	"1"	"1"	"1"	"1"	"1"	"1"	"1"	"1"	"1"	"1"	"1"	"1"	"1"	"1"	"1"	"1"	"1"	"1"	"1"	"1"	"1"	"1"	"1"	"1"	"1"	"1"	"1"	"1"	"1"	"1"	"1"	"1"	"1"	"1"	"1"	"1"	"1"	"."	"."	"0.5"	"0.5"	"0.5"	"0.5"	"0.5"	"0.5"	"0.5"	"0.5"	"0.5"	"0.5"	"0.5"	"0.5"	"0.5"	"0.5"	"0.5"	"0.5"	"0.5"	"0.5"	"0.5"	"0.5"	"0.5"	"0.5"	"0.5"	"0.5"	"0.5"	"0.5"	""	""	""	""	""	""	""	""	""	""	""	""	""	NA	NA	NA	NA	NA	"1400"	NA	0	0	3000	600	3000	"sol-ichart-v1-post-gating"	"./"	"V1"	NA	NA	NA	"yes"	"OK"	"child"	77	"hearing"	"kitty"	"none"	"known_sign"	32	"include"	">= 27 Months"	"Kids"	"C_D"	"1"	2	4	1400	2	37	1733	2	8	0.710144927536232	TRUE	TRUE	TRUE	"C_D"	"C_D"
"30010"	44	"F"	"sol-vanilla-2"	11	""	"book3R.pct"	""	"car3L.pct"	"l"	"book3R.pct"	"Vanilla"	"D"	2	1567	2165	8000	"0.5"	"0.5"	"0.5"	"0.5"	"0.5"	"0.5"	"0.5"	"0.5"	"0.5"	"0.5"	"0.5"	"0.5"	"0.5"	"0.5"	"0.5"	"0.5"	"0.5"	"0.5"	"0.5"	"0.5"	"0.5"	"0.5"	"0.5"	"0.5"	"0.5"	"0.5"	"0.5"	"0.5"	"0.5"	"0.5"	"0.5"	"0.5"	"0.5"	"0.5"	"0.5"	"0.5"	"0.5"	"0.5"	"0.5"	"0.5"	"0.5"	"0.5"	"0.5"	"0.5"	"0.5"	"0.5"	"0.5"	"."	"."	"1"	"1"	"1"	"1"	"1"	"1"	"1"	"1"	"1"	"1"	"1"	"1"	"1"	"1"	"1"	"1"	"1"	"1"	"1"	"1"	"1"	"1"	"1"	"1"	"1"	"1"	"1"	"1"	"1"	"1"	"1"	"1"	"1"	"1"	"1"	"1"	"1"	"1"	"1"	"1"	"1"	"1"	"1"	"1"	"1"	"."	"."	"0.5"	"0.5"	"0.5"	"0.5"	"0.5"	"0.5"	"0.5"	"0.5"	"0.5"	"0.5"	"0.5"	"0.5"	"0.5"	"0.5"	"0.5"	"0.5"	"0.5"	"0.5"	"0.5"	"0.5"	"0.5"	""	""	""	""	""	""	""	""	""	""	""	""	""	""	""	""	""	""	""	""	""	""	""	""	""	""	""	""	""	""	NA	NA	NA	NA	NA	"1567"	NA	0	0	3000	600	3000	"sol-ichart-v1-post-gating"	"./"	"V1"	NA	NA	NA	"yes"	"OK"	"child"	77	"hearing"	"book"	"none"	"known_sign"	32	"include"	">= 27 Months"	"Kids"	"C_T"	"1"	2	2	1567	2	42	1567	1	42	0.795774647887324	TRUE	TRUE	TRUE	"C_T"	"C_T"
"30010"	44	"F"	"sol-vanilla-2"	12	""	"kitty3R.pct"	""	"birdy3L.pct"	"l"	"kitty3R.pct"	"Vanilla"	"D"	2	1433	2132	8000	"0.5"	"0.5"	"0.5"	"0.5"	"0.5"	"0.5"	"0.5"	"0.5"	"0.5"	"0.5"	"0.5"	"0.5"	"0.5"	"0.5"	"0.5"	"0.5"	"0.5"	"0.5"	"0.5"	"0.5"	"0.5"	"0.5"	"0.5"	"0.5"	"0.5"	"0.5"	"0.5"	"0.5"	"0.5"	"0.5"	"0.5"	"0.5"	"0.5"	"0.5"	"0.5"	"0.5"	"0.5"	"0.5"	"0.5"	"0.5"	"0.5"	"0.5"	"0.5"	"."	"."	"1"	"1"	"1"	"1"	"1"	"1"	"1"	"1"	"1"	"1"	"1"	"1"	"1"	"1"	"1"	"1"	"1"	"1"	"1"	"1"	"1"	"1"	"1"	"1"	"1"	"1"	"1"	"1"	"1"	"."	"."	"."	"."	"."	"0.5"	"0.5"	"0.5"	"0.5"	"0.5"	"0.5"	"0.5"	"0.5"	"0.5"	"0.5"	"0.5"	"0.5"	"0.5"	"0.5"	"0.5"	"0.5"	"0.5"	"0.5"	"0.5"	"."	"."	"1"	"1"	"1"	"1"	"1"	"1"	"1"	"1"	"1"	"1"	"1"	"1"	"1"	"1"	"1"	"1"	"1"	"1"	"1"	"1"	"1"	"1"	"1"	"1"	"1"	"1"	"1"	"1"	"1"	"1"	"1"	"1"	"1"	"1"	"1"	"1"	"1"	"1"	"1"	"1"	""	""	""	""	""	""	""	NA	NA	NA	NA	NA	"1433"	NA	0	0	3000	600	3000	"sol-ichart-v1-post-gating"	"./"	"V1"	NA	NA	NA	"yes"	"OK"	"child"	77	"hearing"	"kitty"	"none"	"known_sign"	32	"include"	">= 27 Months"	"Kids"	"C_T"	"1"	5	7	2467	2	29	1433	2	29	0.71969696969697	TRUE	TRUE	TRUE	"C_T"	"C_T"
"30010"	44	"F"	"sol-vanilla-2"	13	""	"doll3R.pct"	""	"teddy2.pct"	"r"	"teddy2.pct"	"Vanilla"	"D"	1	767	1924	8000	"0.5"	"0.5"	"0.5"	"0.5"	"0.5"	"0.5"	"0.5"	"0.5"	"0.5"	"0.5"	"0.5"	"0.5"	"0.5"	"0.5"	"0.5"	"0.5"	"0.5"	"0.5"	"0.5"	"0.5"	"0.5"	"0.5"	"0.5"	"."	"1"	"1"	"1"	"1"	"1"	"1"	"1"	"1"	"1"	"1"	"1"	"1"	"1"	"1"	"1"	"1"	"1"	"1"	"1"	"1"	"1"	"1"	"1"	"1"	"1"	"1"	"1"	"1"	"1"	"1"	"1"	"."	"0.5"	"0.5"	"0.5"	"0.5"	"0.5"	"0.5"	"0.5"	"0.5"	"0.5"	"0.5"	"0.5"	"0.5"	"0.5"	"0.5"	"0.5"	"0.5"	"0.5"	"0.5"	"0.5"	"0.5"	"0.5"	"0.5"	"0.5"	"0.5"	"0.5"	"0.5"	"0.5"	"0.5"	"0.5"	"0.5"	"0.5"	"0.5"	"0.5"	"0.5"	"0.5"	"0.5"	"0.5"	"0.5"	"0.5"	"0.5"	"0.5"	"0.5"	"0.5"	"0.5"	""	""	""	""	""	""	""	""	""	""	""	""	""	""	""	""	""	""	""	""	""	""	""	""	""	""	""	""	""	""	""	""	""	""	""	""	""	""	""	""	""	""	""	""	""	""	""	NA	NA	NA	NA	NA	"767"	NA	0	0	3000	600	3000	"sol-ichart-v1-post-gating"	"./"	"V1"	NA	NA	NA	"yes"	"OK"	"child"	77	"hearing"	"teddy"	"none"	"known_sign"	32	"include"	">= 27 Months"	"Kids"	"C_T"	"1"	1	2	767	1	31	767	2	31	0.71830985915493	TRUE	TRUE	TRUE	"C_T"	"C_T"
"30010"	44	"F"	"sol-vanilla-2"	14	""	"ball3R.pct"	""	"shoe3L.pct"	"l"	"ball3R.pct"	"Vanilla"	"D"	2	1433	2132	8000	"0.5"	"0.5"	"0.5"	"0.5"	"0.5"	"0.5"	"0.5"	"0.5"	"0.5"	"0.5"	"0.5"	"0.5"	"0.5"	"0.5"	"0.5"	"0.5"	"0.5"	"0.5"	"0.5"	"0.5"	"0.5"	"0.5"	"0.5"	"0.5"	"0.5"	"0.5"	"0.5"	"0.5"	"0.5"	"0.5"	"0.5"	"0.5"	"0.5"	"0.5"	"0.5"	"0.5"	"0.5"	"0.5"	"0.5"	"0.5"	"0.5"	"0.5"	"0.5"	"."	"."	"1"	"1"	"1"	"1"	"1"	"1"	"1"	"1"	"1"	"1"	"1"	"1"	"1"	"1"	"1"	"1"	"1"	"1"	"1"	"1"	"1"	"1"	"1"	"1"	"1"	"1"	"1"	"1"	"1"	"1"	"1"	"1"	"1"	"."	"."	"."	"0.5"	"0.5"	"0.5"	"0.5"	"0.5"	"0.5"	"0.5"	"0.5"	"0.5"	"0.5"	"0.5"	"0.5"	"0.5"	"0.5"	"0.5"	"0.5"	"0.5"	"0.5"	"0.5"	"."	"1"	"1"	"1"	"1"	"1"	"1"	"1"	"1"	"1"	"1"	"."	"."	"0"	"0"	"0"	"0"	"0"	"0"	"0"	"0"	"0"	"0"	"0"	"0"	"0"	"0"	"0"	"0"	"0"	"0"	"0"	"0"	"0"	"0"	"0"	"0"	""	""	""	""	""	""	""	""	""	""	NA	NA	NA	NA	NA	"1433"	NA	0	0	3000	600	3000	"sol-ichart-v1-post-gating"	"./"	"V1"	NA	NA	NA	"yes"	"OK"	"child"	77	"hearing"	"ball"	"none"	"known_sign"	32	"include"	">= 27 Months"	"Kids"	"C_T"	"1"	3	5	2600	2	33	1433	2	33	0.742647058823529	TRUE	TRUE	TRUE	"C_T"	"C_T"
"30010"	44	"F"	"sol-vanilla-2"	15	""	"kitty4R.pct"	""	"birdy4L.pct"	"r"	"birdy4L.pct"	"Vanilla"	"D"	2	867	1924	8000	"0.5"	"0.5"	"0.5"	"0.5"	"0.5"	"0.5"	"0.5"	"0.5"	"0.5"	"0.5"	"0.5"	"0.5"	"0.5"	"0.5"	"0.5"	"0.5"	"0.5"	"0.5"	"0.5"	"0.5"	"0.5"	"0.5"	"0.5"	"0.5"	"0.5"	"0.5"	"."	"."	"0"	"0"	"0"	"0"	"0"	"0"	"0"	"0"	"0"	"0"	"0"	"0"	"."	"."	"1"	"1"	"1"	"1"	"1"	"1"	"1"	"1"	"1"	"1"	"1"	"1"	"1"	"1"	"1"	"1"	"1"	"1"	"1"	"1"	"1"	"1"	"1"	"1"	"1"	"1"	"1"	"1"	"1"	"1"	"1"	"1"	"1"	"1"	"1"	"1"	"1"	"1"	"1"	"1"	"1"	"1"	"1"	"1"	"1"	"1"	"1"	"1"	"1"	"1"	"1"	"1"	"1"	"1"	""	""	""	""	""	""	""	""	""	""	""	""	""	""	""	""	""	""	""	""	""	""	""	""	""	""	""	""	""	""	""	""	""	""	""	""	""	""	""	""	""	""	""	""	""	""	""	""	""	""	""	NA	NA	NA	NA	NA	"867"	NA	0	0	3000	600	3000	"sol-ichart-v1-post-gating"	"./"	"V1"	NA	NA	NA	"yes"	"OK"	"child"	77	"hearing"	"birdy"	"none"	"known_sign"	32	"include"	">= 27 Months"	"Kids"	"C_D"	"1"	2	4	867	2	49	1333	2	12	0.768115942028985	TRUE	TRUE	TRUE	"C_D"	"C_D"
"30010"	44	"F"	"sol-vanilla-2"	16	""	"doll4R.pct"	""	"teddy3.pct"	"l"	"doll4R.pct"	"Vanilla"	"D"	4	1200	1891	8000	"0.5"	"0.5"	"0.5"	"0.5"	"0.5"	"0.5"	"0.5"	"0.5"	"0.5"	"0.5"	"0.5"	"0.5"	"0.5"	"0.5"	"0.5"	"0.5"	"0.5"	"0.5"	"0.5"	"0.5"	"0.5"	"0.5"	"0.5"	"0.5"	"0.5"	"0.5"	"0.5"	"0.5"	"0.5"	"0.5"	"0.5"	"0.5"	"0.5"	"0.5"	"0.5"	"0.5"	"."	"."	"."	"."	"1"	"1"	"1"	"1"	"1"	"1"	"1"	"1"	"1"	"1"	"1"	"1"	"1"	"1"	"1"	"1"	"1"	"1"	"1"	"1"	"1"	"1"	"1"	"1"	"1"	"1"	"1"	"1"	"1"	"1"	"1"	"1"	"1"	"1"	"1"	"1"	"1"	"1"	"1"	"1"	"1"	"1"	"1"	"1"	"1"	"1"	"1"	"1"	"1"	"1"	"1"	"1"	"1"	"1"	"1"	"1"	"1"	"1"	"1"	"1"	"1"	"1"	"1"	"1"	"1"	"1"	"1"	"1"	"1"	"1"	"1"	"1"	"1"	"1"	"1"	"1"	"1"	"1"	"1"	""	""	""	""	""	""	""	""	""	""	""	""	""	""	""	""	""	""	""	""	""	""	""	""	""	""	""	""	NA	NA	NA	NA	NA	"1200"	NA	0	0	3000	600	3000	"sol-ichart-v1-post-gating"	"./"	"V1"	NA	NA	NA	"yes"	"OK"	"child"	77	"hearing"	"doll"	"none"	"known_sign"	32	"include"	">= 27 Months"	"Kids"	"C_T"	"1"	4	4	1200	4	51	1200	1	51	0.869565217391304	TRUE	TRUE	TRUE	"C_T"	"C_T"
"30010"	44	"F"	"sol-vanilla-2"	17	""	"book4R.pct"	""	"car4L.pct"	"r"	"car4L.pct"	"Vanilla"	"D"	2	1300	1759	8000	"0.5"	"0.5"	"0.5"	"0.5"	"0.5"	"0.5"	"0.5"	"0.5"	"0.5"	"0.5"	"0.5"	"0.5"	"0.5"	"0.5"	"0.5"	"0.5"	"0.5"	"0.5"	"0.5"	"0.5"	"0.5"	"0.5"	"0.5"	"0.5"	"0.5"	"0.5"	"0.5"	"0.5"	"0.5"	"0.5"	"0.5"	"0.5"	"0.5"	"0.5"	"0.5"	"0.5"	"0.5"	"0.5"	"0.5"	"."	"."	"1"	"1"	"1"	"1"	"1"	"1"	"1"	"1"	"1"	"1"	"1"	"1"	"1"	"1"	"1"	"1"	"1"	"1"	"1"	"1"	"1"	"1"	"1"	"1"	"1"	"1"	"1"	"1"	"1"	"1"	"1"	"1"	"1"	"1"	"1"	"1"	"1"	"1"	"1"	"1"	"1"	"1"	"1"	"1"	"1"	"1"	"."	"."	"."	"."	"."	"."	"."	"0.5"	"0.5"	"0.5"	"0.5"	"0.5"	"0.5"	"0.5"	"0.5"	"0.5"	"0.5"	"0.5"	"0.5"	"0.5"	"0.5"	"0.5"	"0.5"	""	""	""	""	""	""	""	""	""	""	""	""	""	""	""	""	""	""	""	""	""	""	""	""	""	""	""	""	""	""	""	""	""	""	""	""	""	NA	NA	NA	NA	NA	"1300"	NA	0	0	3000	600	3000	"sol-ichart-v1-post-gating"	"./"	"V1"	NA	NA	NA	"yes"	"OK"	"child"	77	"hearing"	"car"	"none"	"known_sign"	32	"include"	">= 27 Months"	"Kids"	"C_T"	"1"	4	6	2900	2	46	1300	2	46	0.843283582089552	TRUE	TRUE	TRUE	"C_T"	"C_T"
"30010"	44	"F"	"sol-vanilla-2"	18	""	"ball4R.pct"	""	"shoe4L.pct"	"r"	"shoe4L.pct"	"Vanilla"	"D"	2	2000	3000	8000	"0.5"	"0.5"	"0.5"	"0.5"	"0.5"	"0.5"	"0.5"	"0.5"	"0.5"	"0.5"	"0.5"	"0.5"	"0.5"	"0.5"	"0.5"	"0.5"	"0.5"	"0.5"	"0.5"	"0.5"	"0.5"	"0.5"	"0.5"	"0.5"	"0.5"	"0.5"	"0.5"	"0.5"	"0.5"	"0.5"	"0.5"	"0.5"	"0.5"	"0.5"	"0.5"	"0.5"	"0.5"	"0.5"	"0.5"	"0.5"	"0.5"	"0.5"	"0.5"	"0.5"	"0.5"	"0.5"	"0.5"	"0.5"	"0.5"	"0.5"	"0.5"	"0.5"	"0.5"	"0.5"	"0.5"	"0.5"	"0.5"	"0.5"	"0.5"	"0.5"	"."	"."	"1"	"1"	"1"	"1"	"1"	"1"	"1"	"1"	"1"	"1"	"1"	"1"	"1"	"1"	"1"	"1"	"1"	"1"	"1"	"1"	"1"	"1"	"1"	"1"	"1"	"1"	"1"	"1"	"1"	"1"	"1"	"1"	"1"	"1"	"1"	"1"	"1"	"1"	"1"	"1"	"1"	"1"	"1"	"."	"."	"."	"."	"."	"."	"."	"."	"."	"."	"."	"."	"."	"."	"."	"."	"."	"."	"."	"."	"."	"."	"."	"."	"."	"."	"."	"."	"."	"."	"."	"."	"."	"."	"."	"."	"."	"."	"."	"."	""	""	NA	NA	NA	NA	NA	"2000"	NA	0	0	3000	600	3000	"sol-ichart-v1-post-gating"	"./"	"V1"	NA	NA	NA	"yes"	"OK"	"child"	77	"hearing"	"shoe"	"none"	"known_sign"	32	"include"	">= 27 Months"	"Kids"	"C_T"	"1"	2	2	2000	2	29	2000	1	29	0.704225352112676	TRUE	TRUE	TRUE	"C_T"	"C_T"
"30010"	44	"F"	"sol-vanilla-2"	20	""	"birdy2R.pct"	""	"kitty2L.pct"	"l"	"birdy2R.pct"	"Vanilla"	"D"	2	700	1924	8000	"0.5"	"0.5"	"0.5"	"0.5"	"0.5"	"0.5"	"0.5"	"0.5"	"0.5"	"0.5"	"0.5"	"0.5"	"0.5"	"0.5"	"0.5"	"0.5"	"0.5"	"0.5"	"0.5"	"0.5"	"0.5"	"."	"."	"1"	"1"	"1"	"1"	"."	"."	"0"	"0"	"0"	"0"	"0"	"0"	"0"	"0"	"0"	"0"	"0"	"0"	"0"	"0"	"0"	"0"	"0"	"."	"."	"1"	"1"	"1"	"1"	"1"	"1"	"1"	"1"	"1"	"1"	"1"	"1"	"1"	"1"	"1"	"1"	"1"	"1"	"1"	"1"	"1"	"1"	"1"	"1"	"1"	"."	"."	"0.5"	"0.5"	"0.5"	"0.5"	"0.5"	"0.5"	"0.5"	"0.5"	"0.5"	"0.5"	"0.5"	"0.5"	"0.5"	"0.5"	"."	"."	"1"	"1"	"1"	"1"	"1"	"1"	"1"	""	""	""	""	""	""	""	""	""	""	""	""	""	""	""	""	""	""	""	""	""	""	""	""	""	""	""	""	""	""	""	""	""	""	""	""	""	""	""	""	""	""	""	""	""	""	""	""	""	NA	NA	NA	NA	NA	"700"	NA	0	0	3000	600	3000	"sol-ichart-v1-post-gating"	"./"	"V1"	NA	NA	NA	"yes"	"OK"	"child"	77	"hearing"	"birdy"	"none"	"known_sign"	32	"include"	">= 27 Months"	"Kids"	"C_T"	"1"	4	10	2900	2	25	1533	4	4	0.595238095238095	TRUE	TRUE	TRUE	"C_T"	"C_T"
"30010"	44	"F"	"sol-vanilla-2"	22	""	"shoe2R.pct"	""	"ball2L.pct"	"r"	"ball2L.pct"	"Vanilla"	"A"	3	100	2132	8000	"1"	"1"	"1"	"."	"."	"."	"0"	"0"	"0"	"0"	"0"	"0"	"0"	"0"	"0"	"0"	"0"	"0"	"0"	"0"	"0"	"0"	"0"	"0"	"0"	"0"	"."	"."	"0.5"	"0.5"	"0.5"	"0.5"	"0.5"	"0.5"	"0.5"	"0.5"	"0.5"	"0.5"	"0.5"	"0.5"	"0.5"	"0.5"	"0.5"	"0.5"	"0.5"	"0.5"	"0.5"	"0.5"	"0.5"	"0.5"	"0.5"	"0.5"	"0.5"	"0.5"	"."	"."	"1"	"1"	"1"	"1"	"1"	"1"	"1"	"1"	"1"	"1"	"1"	"1"	"1"	"1"	"1"	"1"	"1"	"1"	"1"	"1"	"1"	"1"	"1"	"1"	"1"	"1"	"1"	"1"	"1"	"1"	"1"	"1"	"1"	"1"	"1"	"1"	"1"	"1"	"1"	"1"	"1"	"1"	"1"	"1"	"1"	"1"	"1"	"1"	"1"	"1"	"1"	"1"	"1"	"1"	"1"	"1"	"1"	"1"	"1"	"1"	"1"	"1"	"1"	"1"	"1"	"1"	"1"	"1"	"1"	"1"	"1"	"1"	"1"	"1"	"1"	"1"	"1"	"1"	"1"	"1"	""	""	""	""	""	""	""	""	""	""	""	NA	NA	NA	NA	NA	"100"	NA	0	0	3000	600	3000	"sol-ichart-v1-post-gating"	"./"	"V1"	NA	NA	NA	"yes"	"OK"	"child"	77	"hearing"	"ball"	"none"	"known_sign"	32	"include"	">= 27 Months"	"Kids"	"off_signer"	"1"	4	7	1733	3	35	867	2	20	0.695652173913043	TRUE	FALSE	TRUE	"off_signer"	"off_signer"
"30010"	44	"F"	"sol-vanilla-2"	23	""	"teddy1R.pct"	""	"doll2L.pct"	"l"	"teddy1R.pct"	"Vanilla"	"A"	3	733	1957	8000	"0"	"0"	"0"	"0"	"0"	"0"	"0"	"0"	"0"	"0"	"0"	"0"	"0"	"0"	"0"	"0"	"0"	"0"	"0"	"0"	"0"	"0"	"."	"."	"."	"0.5"	"0.5"	"0.5"	"0.5"	"0.5"	"0.5"	"0.5"	"0.5"	"0.5"	"0.5"	"0.5"	"0.5"	"0.5"	"0.5"	"0.5"	"0.5"	"0.5"	"0.5"	"0.5"	"0.5"	"0.5"	"0.5"	"0.5"	"0.5"	"0.5"	"0.5"	"0.5"	"0.5"	"0.5"	"0.5"	"0.5"	"0.5"	"0.5"	"0.5"	"0.5"	"0.5"	"0.5"	"0.5"	"0.5"	"0.5"	"0.5"	"0.5"	"0.5"	"0.5"	"0.5"	"0.5"	"0.5"	"0.5"	"."	"."	"."	"1"	"1"	"1"	"1"	"1"	"1"	"1"	"1"	"1"	"1"	"1"	"1"	"1"	"1"	"1"	"1"	"1"	"1"	"1"	"1"	"1"	"1"	"1"	"1"	"1"	"1"	"1"	"1"	"1"	"1"	"1"	"1"	"1"	"1"	"1"	"1"	"1"	"."	"."	"0.5"	"0.5"	"0.5"	"0.5"	"0.5"	"0.5"	"0.5"	"0.5"	"0.5"	"0.5"	"0.5"	"0.5"	""	""	""	""	""	""	""	""	""	""	""	""	""	""	""	""	""	""	""	""	NA	NA	NA	NA	NA	"2433"	NA	0	0	3000	600	3000	"sol-ichart-v1-post-gating"	"./"	"V1"	NA	NA	NA	"yes"	"OK"	"child"	77	"hearing"	"teddy"	"none"	"known_sign"	32	"include"	">= 27 Months"	"Kids"	"off_signer"	"0"	6	6	2333	6	22	733	1	15	0.582089552238806	TRUE	TRUE	TRUE	"off_signer"	"off_signer"
"30010"	44	"F"	"sol-vanilla-2"	24	""	"car3R.pct"	""	"book3L.pct"	"l"	"car3R.pct"	"Vanilla"	"D"	2	933	1759	8000	"0.5"	"0.5"	"0.5"	"0.5"	"0.5"	"0.5"	"0.5"	"0.5"	"0.5"	"0.5"	"0.5"	"0.5"	"0.5"	"0.5"	"0.5"	"0.5"	"0.5"	"0.5"	"0.5"	"0.5"	"0.5"	"0.5"	"0.5"	"0.5"	"0.5"	"0.5"	"0.5"	"0.5"	"."	"."	"1"	"1"	"1"	"1"	"1"	"1"	"1"	"1"	"1"	"1"	"1"	"1"	"1"	"1"	"1"	"1"	"1"	"1"	"1"	"1"	"1"	"1"	"1"	"1"	"1"	"1"	"1"	"1"	"1"	"1"	"1"	"1"	"1"	"1"	"1"	"1"	"1"	"1"	"1"	"1"	"1"	"1"	"1"	"1"	"1"	"1"	"1"	"1"	"1"	"1"	"1"	"1"	"1"	"1"	"1"	"1"	"1"	"1"	"1"	"1"	"1"	"1"	"1"	"1"	"1"	"1"	"1"	"1"	"1"	"1"	"1"	"1"	"1"	"1"	"1"	"1"	"1"	"1"	"1"	"1"	"1"	""	""	""	""	""	""	""	""	""	""	""	""	""	""	""	""	""	""	""	""	""	""	""	""	""	""	""	""	""	""	""	""	""	""	""	""	NA	NA	NA	NA	NA	"933"	NA	0	0	3000	600	3000	"sol-ichart-v1-post-gating"	"./"	"V1"	NA	NA	NA	"yes"	"OK"	"child"	77	"hearing"	"car"	"none"	"known_sign"	32	"include"	">= 27 Months"	"Kids"	"C_T"	"1"	2	2	933	2	61	933	1	61	0.929577464788732	TRUE	TRUE	TRUE	"C_T"	"C_T"
"30010"	44	"F"	"sol-vanilla-2"	25	""	"birdy3R.pct"	""	"kitty3L.pct"	"r"	"kitty3L.pct"	"Vanilla"	"A"	2	67	2132	8000	"0"	"0"	"."	"."	"0.5"	"0.5"	"0.5"	"0.5"	"0.5"	"0.5"	"0.5"	"0.5"	"0.5"	"0.5"	"0.5"	"0.5"	"0.5"	"0.5"	"0.5"	"0.5"	"0.5"	"0.5"	"0.5"	"0.5"	"0.5"	"0.5"	"0.5"	"0.5"	"0.5"	"0.5"	"0.5"	"0.5"	"0.5"	"0.5"	"0.5"	"0.5"	"0.5"	"0.5"	"0.5"	"0.5"	"0.5"	"0.5"	"0.5"	"."	"."	"1"	"1"	"1"	"1"	"1"	"1"	"1"	"1"	"1"	"1"	"1"	"1"	"1"	"1"	"1"	"1"	"1"	"1"	"1"	"1"	"1"	"1"	"1"	"1"	"1"	"1"	"1"	"."	"."	"."	"."	"."	"."	"."	"0.5"	"0.5"	"0.5"	"0.5"	"0.5"	"0.5"	"0.5"	"0.5"	"0.5"	"0.5"	"0.5"	"0.5"	"0.5"	"0.5"	"0.5"	"0.5"	"0.5"	"0.5"	"0.5"	"0.5"	"0.5"	"0.5"	"0.5"	"0.5"	"0.5"	"0.5"	"0.5"	"."	"."	"1"	"1"	"1"	"1"	"1"	"1"	"1"	"1"	"1"	"1"	"1"	"1"	"1"	"1"	"1"	"1"	"1"	"1"	"1"	"1"	"1"	"1"	"1"	"1"	"1"	"1"	"1"	"1"	"1"	"1"	"1"	"1"	""	""	""	""	""	""	""	NA	NA	NA	NA	NA	"1433"	NA	0	0	3000	600	3000	"sol-ichart-v1-post-gating"	"./"	"V1"	NA	NA	NA	"yes"	"OK"	"child"	77	"hearing"	"kitty"	"none"	"known_sign"	32	"include"	">= 27 Months"	"Kids"	"off_signer"	"1"	7	11	2400	4	27	67	2	27	0.7109375	TRUE	FALSE	TRUE	"off_signer"	"off_signer"
"30010"	44	"F"	"sol-vanilla-2"	26	""	"shoe3R.pct"	""	"ball3L.pct"	"l"	"shoe3R.pct"	"Vanilla"	"D"	1	2333	3000	8000	"0.5"	"0.5"	"0.5"	"0.5"	"0.5"	"0.5"	"0.5"	"0.5"	"0.5"	"0.5"	"0.5"	"0.5"	"0.5"	"0.5"	"0.5"	"0.5"	"0.5"	"0.5"	"0.5"	"0.5"	"0.5"	"0.5"	"0.5"	"0.5"	"0.5"	"0.5"	"0.5"	"0.5"	"0.5"	"0.5"	"0.5"	"0.5"	"0.5"	"0.5"	"0.5"	"0.5"	"0.5"	"0.5"	"0.5"	"0.5"	"0.5"	"0.5"	"0.5"	"0.5"	"0.5"	"0.5"	"0.5"	"0.5"	"0.5"	"0.5"	"0.5"	"0.5"	"0.5"	"0.5"	"0.5"	"0.5"	"0.5"	"0.5"	"0.5"	"0.5"	"0.5"	"0.5"	"0.5"	"0.5"	"0.5"	"0.5"	"0.5"	"0.5"	"0.5"	"0.5"	"."	"0"	"0"	"0"	"0"	"0"	"0"	"0"	"0"	"0"	"0"	"0"	"."	"."	"."	"1"	"1"	"1"	"1"	"1"	"1"	"1"	"1"	"1"	"1"	"1"	"1"	"1"	"1"	"1"	"1"	"1"	"1"	"1"	"1"	"1"	"1"	"1"	"1"	"1"	"1"	"1"	"1"	"1"	"1"	"1"	"1"	"1"	"1"	"1"	"1"	"1"	"1"	"1"	"1"	"1"	"1"	"1"	"1"	"1"	"1"	"1"	"1"	"1"	"1"	"1"	"1"	"1"	"1"	"1"	"1"	"1"	"1"	"1"	"1"	""	""	NA	NA	NA	NA	NA	"2333"	NA	0	0	3000	600	3000	"sol-ichart-v1-post-gating"	"./"	"V1"	NA	NA	NA	"yes"	"OK"	"child"	77	"hearing"	"shoe"	"none"	"known_sign"	32	"include"	">= 27 Months"	"Kids"	"C_D"	"0"	3	4	2733	1	11	2733	2	11	0.463768115942029	TRUE	TRUE	TRUE	"C_D"	"C_D"
"30010"	44	"F"	"sol-vanilla-2"	27	""	"teddy2.pct"	""	"doll3L.pct"	"r"	"doll3L.pct"	"Vanilla"	"D"	3	2033	1924	8000	"0.5"	"0.5"	"0.5"	"0.5"	"0.5"	"0.5"	"0.5"	"0.5"	"0.5"	"0.5"	"0.5"	"0.5"	"0.5"	"0.5"	"0.5"	"0.5"	"0.5"	"0.5"	"0.5"	"0.5"	"0.5"	"0.5"	"0.5"	"0.5"	"0.5"	"0.5"	"0.5"	"0.5"	"0.5"	"0.5"	"0.5"	"0.5"	"0.5"	"0.5"	"0.5"	"0.5"	"0.5"	"0.5"	"0.5"	"0.5"	"0.5"	"0.5"	"0.5"	"0.5"	"0.5"	"0.5"	"0.5"	"0.5"	"0.5"	"0.5"	"0.5"	"0.5"	"0.5"	"0.5"	"0.5"	"0.5"	"0.5"	"0.5"	"0.5"	"0.5"	"0.5"	"."	"."	"."	"0"	"0"	"0"	"0"	"0"	"0"	"0"	"0"	"0"	"0"	"0"	"0"	"0"	"0"	"0"	"."	"."	"."	"1"	"1"	"1"	"1"	"1"	"1"	"1"	"1"	"1"	"1"	"1"	"1"	"1"	"1"	"1"	"1"	"1"	"1"	"1"	"."	"."	"."	"."	"."	"."	"."	"0.5"	"0.5"	"0.5"	"0.5"	"0.5"	"0.5"	"0.5"	"0.5"	""	""	""	""	""	""	""	""	""	""	""	""	""	""	""	""	""	""	""	""	""	""	""	""	""	""	""	""	""	""	""	NA	NA	NA	NA	NA	"2033"	NA	0	0	3000	600	3000	"sol-ichart-v1-post-gating"	"./"	"V1"	NA	NA	NA	"yes"	"OK"	"child"	77	"hearing"	"doll"	"none"	"known_sign"	32	"include"	">= 27 Months"	"Kids"	"C_D"	"0"	3	6	2033	3	15	2633	2	15	0.455223880597015	TRUE	TRUE	TRUE	"C_D"	"C_D"
"30010"	44	"F"	"sol-vanilla-2"	31	""	"doll1R.pct"	""	"teddy3.pct"	"r"	"teddy3.pct"	"Vanilla"	"D"	1	1133	1957	8000	"0.5"	"0.5"	"0.5"	"0.5"	"0.5"	"0.5"	"0.5"	"0.5"	"0.5"	"0.5"	"0.5"	"0.5"	"0.5"	"0.5"	"0.5"	"0.5"	"0.5"	"0.5"	"0.5"	"0.5"	"0.5"	"0.5"	"0.5"	"0.5"	"0.5"	"0.5"	"0.5"	"0.5"	"0.5"	"0.5"	"0.5"	"0.5"	"0.5"	"0.5"	"."	"0"	"0"	"0"	"0"	"0"	"0"	"."	"."	"."	"1"	"1"	"1"	"1"	"1"	"1"	"1"	"1"	"1"	"1"	"1"	"1"	"1"	"1"	"1"	"1"	"1"	"1"	"1"	"1"	"1"	"1"	"1"	"1"	"1"	"1"	"1"	"1"	"1"	"1"	"1"	"1"	"1"	"1"	"1"	"1"	"1"	"1"	"1"	"1"	"1"	"1"	"1"	"1"	"1"	"1"	"."	"."	"."	"."	"."	"."	"."	"."	"."	"."	"."	"."	"."	"."	"."	"."	"."	"."	"."	"."	"."	"."	"."	"."	"."	"."	"."	"."	"."	"."	"."	"."	"."	"."	"."	"."	"."	"."	""	""	""	""	""	""	""	""	""	""	""	""	""	""	""	""	""	""	""	NA	NA	NA	NA	NA	"1133"	NA	0	0	3000	600	3000	"sol-ichart-v1-post-gating"	"./"	"V1"	NA	NA	NA	"yes"	"OK"	"child"	77	"hearing"	"teddy"	"none"	"known_sign"	32	"include"	">= 27 Months"	"Kids"	"C_D"	"1"	3	5	1367	1	46	1367	3	6	0.794117647058823	TRUE	TRUE	TRUE	"C_D"	"C_D"
"30010"	44	"F"	"sol-vanilla-2"	33	""	"book1R.pct"	""	"car1L.pct"	"l"	"book1R.pct"	"Vanilla"	"D"	5	833	2165	8000	"0.5"	"0.5"	"0.5"	"0.5"	"0.5"	"0.5"	"0.5"	"0.5"	"0.5"	"0.5"	"0.5"	"0.5"	"0.5"	"0.5"	"0.5"	"0.5"	"0.5"	"0.5"	"0.5"	"0.5"	"0.5"	"0.5"	"0.5"	"0.5"	"0.5"	"."	"."	"."	"."	"."	"1"	"1"	"1"	"1"	"1"	"1"	"1"	"1"	"1"	"1"	"1"	"1"	"1"	"1"	"1"	"1"	"1"	"1"	"1"	"1"	"1"	"1"	"1"	"1"	"1"	"1"	"1"	"1"	"1"	"1"	"1"	"1"	"1"	"1"	"1"	"1"	"1"	"1"	"1"	"1"	"1"	"1"	"1"	"1"	"1"	"1"	"1"	"1"	"1"	"1"	"1"	"1"	"1"	"1"	"1"	"1"	"1"	"1"	"1"	"1"	"1"	"1"	"1"	"1"	"1"	"1"	"1"	"1"	"1"	"."	"."	"."	"0.5"	"0.5"	"0.5"	"0.5"	"0.5"	"0.5"	"0.5"	"0.5"	"."	"."	"."	"."	"."	"."	"."	"."	"."	""	""	""	""	""	""	""	""	""	""	""	""	""	""	""	""	""	""	""	""	""	""	""	""	""	""	""	""	NA	NA	NA	NA	NA	"833"	NA	0	0	3000	600	3000	"sol-ichart-v1-post-gating"	"./"	"V1"	NA	NA	NA	"yes"	"OK"	"child"	77	"hearing"	"book"	"none"	"known_sign"	32	"include"	">= 27 Months"	"Kids"	"C_T"	"1"	5	5	833	5	61	833	1	61	0.948529411764706	TRUE	TRUE	TRUE	"C_T"	"C_T"
"30010"	44	"F"	"sol-vanilla-2"	34	""	"ball4R.pct"	""	"shoe4L.pct"	"r"	"shoe4L.pct"	"Vanilla"	"D"	2	2867	3000	8000	"0.5"	"0.5"	"0.5"	"0.5"	"0.5"	"0.5"	"0.5"	"0.5"	"0.5"	"0.5"	"0.5"	"0.5"	"0.5"	"0.5"	"0.5"	"0.5"	"0.5"	"0.5"	"0.5"	"0.5"	"0.5"	"0.5"	"0.5"	"0.5"	"0.5"	"0.5"	"0.5"	"0.5"	"0.5"	"0.5"	"0.5"	"0.5"	"0.5"	"0.5"	"0.5"	"0.5"	"0.5"	"0.5"	"0.5"	"0.5"	"0.5"	"0.5"	"0.5"	"0.5"	"0.5"	"0.5"	"0.5"	"0.5"	"0.5"	"0.5"	"0.5"	"0.5"	"0.5"	"0.5"	"0.5"	"0.5"	"0.5"	"0.5"	"0.5"	"0.5"	"0.5"	"0.5"	"0.5"	"0.5"	"0.5"	"0.5"	"0.5"	"0.5"	"0.5"	"0.5"	"0.5"	"0.5"	"0.5"	"0.5"	"0.5"	"0.5"	"0.5"	"0.5"	"0.5"	"0.5"	"0.5"	"0.5"	"0.5"	"0.5"	"0.5"	"0.5"	"."	"."	"1"	"1"	"1"	"1"	"1"	"1"	"1"	"1"	"1"	"1"	"1"	"1"	"1"	"1"	"1"	"1"	"1"	"1"	"1"	"1"	"1"	"1"	"1"	"1"	"1"	"1"	"1"	"1"	"1"	"1"	"1"	"1"	"1"	"1"	"1"	"1"	"1"	"1"	"1"	"1"	"1"	"1"	"1"	"1"	"1"	"1"	"1"	"1"	"1"	"1"	"1"	"1"	"1"	"1"	"1"	"1"	""	""	""	NA	NA	NA	NA	NA	"2867"	NA	0	0	3000	600	3000	"sol-ichart-v1-post-gating"	"./"	"V1"	NA	NA	NA	"yes"	"OK"	"child"	77	"hearing"	"shoe"	"none"	"known_sign"	32	"include"	">= 27 Months"	"Kids"	"C_T"	"1"	2	2	2867	2	3	2867	1	3	0.52112676056338	TRUE	FALSE	TRUE	"no_shift"	"no_shift"
"30010"	44	"F"	"sol-vanilla-2"	35	""	"doll4R.pct"	""	"teddy1R.pct"	"l"	"doll4R.pct"	"Vanilla"	"D"	2	1367	1924	8000	"0.5"	"0.5"	"0.5"	"0.5"	"0.5"	"0.5"	"0.5"	"0.5"	"0.5"	"0.5"	"0.5"	"0.5"	"0.5"	"0.5"	"0.5"	"0.5"	"0.5"	"0.5"	"0.5"	"0.5"	"0.5"	"0.5"	"0.5"	"0.5"	"0.5"	"0.5"	"0.5"	"0.5"	"0.5"	"0.5"	"0.5"	"0.5"	"0.5"	"0.5"	"0.5"	"0.5"	"0.5"	"0.5"	"0.5"	"0.5"	"0.5"	"."	"."	"1"	"1"	"1"	"1"	"1"	"1"	"1"	"1"	"1"	"1"	"1"	"1"	"1"	"1"	"1"	"1"	"1"	"1"	"1"	"1"	"1"	"1"	"1"	"1"	"1"	"1"	"1"	"1"	"."	"."	"."	"."	"."	"0.5"	"0.5"	"0.5"	"0.5"	"0.5"	"0.5"	"0.5"	"0.5"	"0.5"	"0.5"	"0.5"	"0.5"	"0.5"	"0.5"	"0.5"	"0.5"	"0.5"	"0.5"	"0.5"	"0.5"	"0.5"	"0.5"	"0.5"	"0.5"	"0.5"	"0.5"	"0.5"	"0.5"	"0.5"	"0.5"	"0.5"	"0.5"	"0.5"	"0.5"	"0.5"	"0.5"	"0.5"	"0.5"	"0.5"	""	""	""	""	""	""	""	""	""	""	""	""	""	""	""	""	""	""	""	""	""	""	""	""	""	""	""	""	""	""	""	""	NA	NA	NA	NA	NA	"1367"	NA	0	0	3000	600	3000	"sol-ichart-v1-post-gating"	"./"	"V1"	NA	NA	NA	"yes"	"OK"	"child"	77	"hearing"	"doll"	"none"	"known_sign"	32	"include"	">= 27 Months"	"Kids"	"C_T"	"1"	5	7	2367	2	28	1367	2	28	0.712121212121212	TRUE	TRUE	TRUE	"C_T"	"C_T"
"30010"	44	"F"	"sol-vanilla-2"	36	""	"book4R.pct"	""	"car4L.pct"	"r"	"car4L.pct"	"Vanilla"	"D"	1	1267	1759	8000	"0.5"	"0.5"	"0.5"	"0.5"	"0.5"	"0.5"	"0.5"	"0.5"	"0.5"	"0.5"	"0.5"	"0.5"	"0.5"	"0.5"	"0.5"	"0.5"	"0.5"	"0.5"	"0.5"	"0.5"	"0.5"	"0.5"	"0.5"	"0.5"	"0.5"	"0.5"	"0.5"	"0.5"	"0.5"	"0.5"	"0.5"	"0.5"	"0.5"	"0.5"	"0.5"	"0.5"	"0.5"	"0.5"	"."	"1"	"1"	"1"	"1"	"1"	"1"	"1"	"1"	"1"	"1"	"1"	"1"	"1"	"1"	"1"	"1"	"1"	"1"	"1"	"1"	"1"	"1"	"1"	"1"	"1"	"1"	"1"	"1"	"1"	"1"	"1"	"1"	"1"	"1"	"1"	"1"	"1"	"1"	"1"	"1"	"1"	"1"	"1"	"1"	"1"	"1"	"1"	"1"	"1"	"1"	"1"	"1"	"1"	"1"	"1"	"1"	"1"	"1"	"1"	"."	"."	"."	"0.5"	"0.5"	"0.5"	"0.5"	"0.5"	"0.5"	"0.5"	"0.5"	"0.5"	"0.5"	""	""	""	""	""	""	""	""	""	""	""	""	""	""	""	""	""	""	""	""	""	""	""	""	""	""	""	""	""	""	""	""	""	""	""	""	NA	NA	NA	NA	NA	"1267"	NA	0	0	3000	600	3000	"sol-ichart-v1-post-gating"	"./"	"V1"	NA	NA	NA	"yes"	"OK"	"child"	77	"hearing"	"car"	"none"	"known_sign"	32	"include"	">= 27 Months"	"Kids"	"C_T"	"1"	1	1	1267	1	52	1267	1	52	0.861111111111111	TRUE	TRUE	TRUE	"C_T"	"C_T"
"30011"	16	"M"	"sol-vanilla-1"	2	""	"doll1R.pct"	""	"teddy1R.pct"	"l"	"doll1R.pct"	"Vanilla"	"D"	2	1633	1891	8000	"0.5"	"0.5"	"0.5"	"0.5"	"0.5"	"0.5"	"0.5"	"0.5"	"0.5"	"0.5"	"0.5"	"0.5"	"0.5"	"0.5"	"0.5"	"0.5"	"0.5"	"0.5"	"0.5"	"0.5"	"0.5"	"0.5"	"0.5"	"0.5"	"0.5"	"0.5"	"0.5"	"0.5"	"0.5"	"0.5"	"0.5"	"0.5"	"0.5"	"0.5"	"0.5"	"0.5"	"0.5"	"0.5"	"0.5"	"0.5"	"0.5"	"0.5"	"0.5"	"0.5"	"0.5"	"0.5"	"0.5"	"0.5"	"0.5"	"."	"."	"1"	"1"	"1"	"1"	"1"	"1"	"1"	"1"	"1"	"1"	"1"	"1"	"1"	"1"	"1"	"1"	"1"	"1"	"1"	"1"	"1"	"1"	"1"	"1"	"1"	"1"	"1"	"1"	"1"	"1"	"1"	"1"	"1"	"1"	"1"	"."	"."	"0.5"	"0.5"	"0.5"	"0.5"	"0.5"	"0.5"	"0.5"	"0.5"	"0.5"	"0.5"	"0.5"	"0.5"	"0.5"	"0.5"	"0.5"	"0.5"	"0.5"	"0.5"	"0.5"	"0.5"	"0.5"	"0.5"	"0.5"	"0.5"	"0.5"	"0.5"	"0.5"	"0.5"	"0.5"	"0.5"	"0.5"	""	""	""	""	""	""	""	""	""	""	""	""	""	""	""	""	""	""	""	""	""	""	""	""	""	""	""	""	NA	NA	NA	NA	NA	"1633"	NA	0	0	3000	600	3000	"sol-ichart-v1-post-gating"	"./"	"V1"	NA	NA	NA	"yes"	"OK"	"child"	19	"deaf"	"doll"	"none"	"known_sign"	12	"include"	"< 27 Months"	"Kids"	"C_T"	"1"	2	4	1633	2	35	1633	2	35	0.753623188405797	TRUE	TRUE	TRUE	"C_T"	"C_T"
"30011"	16	"M"	"sol-vanilla-1"	3	""	"book1R.pct"	""	"car1L.pct"	"r"	"car1L.pct"	"Vanilla"	"D"	6	1467	1759	8000	"0.5"	"0.5"	"0.5"	"0.5"	"0.5"	"0.5"	"0.5"	"0.5"	"0.5"	"0.5"	"0.5"	"0.5"	"0.5"	"0.5"	"0.5"	"0.5"	"0.5"	"0.5"	"0.5"	"0.5"	"0.5"	"0.5"	"0.5"	"0.5"	"0.5"	"0.5"	"0.5"	"0.5"	"0.5"	"0.5"	"0.5"	"0.5"	"0.5"	"0.5"	"0.5"	"0.5"	"0.5"	"0.5"	"0.5"	"0.5"	"0.5"	"0.5"	"0.5"	"0.5"	"."	"."	"."	"."	"."	"."	"0"	"0"	"0"	"0"	"0"	"0"	"0"	"0"	"0"	"0"	"0"	"0"	"0"	"0"	"0"	"0"	"0"	"0"	"0"	"0"	"0"	"."	"0.5"	"0.5"	"0.5"	"0.5"	"0.5"	"0.5"	"0.5"	"0.5"	"0.5"	"0.5"	"0.5"	"0.5"	"0.5"	"0.5"	"0.5"	"0.5"	"0.5"	"0.5"	"0.5"	"0.5"	"0.5"	"0.5"	"0.5"	"0.5"	"0.5"	"0.5"	"0.5"	"0.5"	"0.5"	"0.5"	"0.5"	"0.5"	"0.5"	"0.5"	"0.5"	"0.5"	"0.5"	""	""	""	""	""	""	""	""	""	""	""	""	""	""	""	""	""	""	""	""	""	""	""	""	""	""	""	""	""	""	""	""	""	""	""	""	""	""	NA	NA	NA	NA	NA	"1467"	NA	0	0	3000	600	3000	"sol-ichart-v1-post-gating"	"./"	"V1"	NA	NA	NA	"yes"	"OK"	"child"	19	"deaf"	"car"	"none"	"known_sign"	12	"include"	"< 27 Months"	"Kids"	"C_D"	"0"	6	7	1467	6	21	NA	2	21	0.340909090909091	TRUE	TRUE	TRUE	"C_D"	"C_D"
"30011"	16	"M"	"sol-vanilla-1"	4	""	"ball1R.pct"	""	"shoe1L.pct"	"l"	"ball1R.pct"	"Vanilla"	"D"	10	2200	2132	8000	"0.5"	"0.5"	"0.5"	"0.5"	"0.5"	"0.5"	"0.5"	"0.5"	"0.5"	"0.5"	"0.5"	"0.5"	"0.5"	"0.5"	"0.5"	"0.5"	"0.5"	"0.5"	"0.5"	"0.5"	"0.5"	"0.5"	"0.5"	"0.5"	"0.5"	"0.5"	"0.5"	"0.5"	"0.5"	"0.5"	"0.5"	"0.5"	"0.5"	"0.5"	"0.5"	"0.5"	"0.5"	"0.5"	"0.5"	"0.5"	"0.5"	"0.5"	"0.5"	"0.5"	"0.5"	"0.5"	"0.5"	"0.5"	"0.5"	"0.5"	"0.5"	"0.5"	"0.5"	"0.5"	"0.5"	"0.5"	"0.5"	"0.5"	"0.5"	"0.5"	"0.5"	"0.5"	"0.5"	"0.5"	"0.5"	"0.5"	"."	"."	"."	"."	"."	"."	"."	"."	"."	"."	"1"	"1"	"1"	"1"	"1"	"1"	"1"	"1"	"1"	"1"	"1"	"1"	"1"	"1"	"1"	"."	"."	"0.5"	"0.5"	"0.5"	"0.5"	"0.5"	"0.5"	"0.5"	"0.5"	"0.5"	"0.5"	"0.5"	"0.5"	"0.5"	"0.5"	"0.5"	"0.5"	"0.5"	"0.5"	"0.5"	"0.5"	"0.5"	"0.5"	"0.5"	"0.5"	"0.5"	"0.5"	"0.5"	"0.5"	"0.5"	"0.5"	"0.5"	"0.5"	"0.5"	"0.5"	"0.5"	"0.5"	"0.5"	"0.5"	"0.5"	"0.5"	"0.5"	"0.5"	"0.5"	""	""	""	""	""	""	""	""	""	""	""	NA	NA	NA	NA	NA	"2200"	NA	0	0	3000	600	3000	"sol-ichart-v1-post-gating"	"./"	"V1"	NA	NA	NA	"yes"	"OK"	"child"	19	"deaf"	"ball"	"none"	"known_sign"	12	"include"	"< 27 Months"	"Kids"	"C_T"	"1"	10	10	2200	10	15	2200	1	15	0.619047619047619	TRUE	TRUE	TRUE	"C_T"	"C_T"
"30011"	16	"M"	"sol-vanilla-1"	5	""	"doll2R.pct"	""	"teddy3.pct"	"r"	"teddy3.pct"	"Vanilla"	"D"	5	1633	1957	8000	"0.5"	"0.5"	"0.5"	"0.5"	"0.5"	"0.5"	"0.5"	"0.5"	"0.5"	"0.5"	"0.5"	"0.5"	"0.5"	"0.5"	"0.5"	"0.5"	"0.5"	"0.5"	"0.5"	"0.5"	"0.5"	"0.5"	"0.5"	"0.5"	"0.5"	"0.5"	"0.5"	"0.5"	"0.5"	"0.5"	"0.5"	"0.5"	"0.5"	"0.5"	"0.5"	"0.5"	"0.5"	"0.5"	"0.5"	"0.5"	"0.5"	"0.5"	"0.5"	"0.5"	"0.5"	"0.5"	"0.5"	"0.5"	"0.5"	"."	"."	"."	"."	"."	"1"	"1"	"1"	"1"	"1"	"1"	"1"	"1"	"1"	"1"	"1"	"1"	"1"	"1"	"1"	"1"	"1"	"1"	"1"	"1"	"1"	"1"	"1"	"."	"."	"0"	"0"	"0"	"0"	"0"	"0"	"0"	"0"	"0"	"0"	"0"	"0"	"0"	"0"	"0"	"0"	"0"	"0"	"0"	"0"	"0"	"0"	"0"	"0"	"0"	"0"	"0"	"0"	"0"	"0"	"0"	"0"	"0"	"0"	"0"	"."	"."	"0.5"	"0.5"	"0.5"	"0.5"	"0.5"	"0.5"	"0.5"	"0.5"	"0.5"	"0.5"	"0.5"	""	""	""	""	""	""	""	""	""	""	""	""	""	""	""	""	""	""	""	""	NA	NA	NA	NA	NA	"1633"	NA	0	0	3000	600	3000	"sol-ichart-v1-post-gating"	"./"	"V1"	NA	NA	NA	"yes"	"OK"	"child"	19	"deaf"	"teddy"	"none"	"known_sign"	12	"include"	"< 27 Months"	"Kids"	"C_T"	"1"	5	7	1633	5	23	1633	2	23	0.583333333333333	TRUE	TRUE	TRUE	"C_T"	"C_T"
"30014"	33	"M"	"sol-vanilla-2"	3	""	"car1R.pct"	""	"book1L.pct"	"l"	"car1R.pct"	"Vanilla"	"A"	NA	0	1759	8000	"-"	"-"	"-"	"-"	"-"	"-"	"-"	"-"	"-"	"-"	"-"	"."	"0.5"	"0.5"	"0.5"	"0.5"	"0.5"	"0.5"	"0.5"	"0.5"	"0.5"	"0.5"	"0.5"	"0.5"	"0.5"	"0.5"	"0.5"	"0.5"	"0.5"	"0.5"	"0.5"	"0.5"	"0.5"	"0.5"	"0.5"	"0.5"	"0.5"	"0.5"	"0.5"	"0.5"	"0.5"	"0.5"	"0.5"	"0.5"	"0.5"	"0.5"	"0.5"	"0.5"	"0.5"	"0.5"	"0.5"	"0.5"	"0.5"	"0.5"	"0.5"	"0.5"	"0.5"	"."	"."	"1"	"1"	"1"	"1"	"1"	"1"	"1"	"1"	"1"	"1"	"1"	"1"	"1"	"1"	"1"	"1"	"1"	"1"	"1"	"1"	"1"	"1"	"1"	"1"	"1"	"1"	"1"	"1"	"1"	"1"	"1"	"1"	"1"	"1"	"1"	"1"	"1"	"1"	"1"	"1"	"1"	"1"	"1"	"1"	"1"	"1"	"1"	"1"	"1"	"1"	"1"	"1"	"1"	""	""	""	""	""	""	""	""	""	""	""	""	""	""	""	""	""	""	""	""	""	""	""	""	""	""	""	""	""	""	""	""	""	""	""	NA	NA	NA	NA	NA	""	NA	0	0	3000	600	3000	"sol-ichart-v1-post-gating"	"./"	"V1"	NA	NA	NA	"yes"	"OK"	"child"	80	"deaf"	"car"	"none"	"known_sign"	24	"include"	">= 27 Months"	"Kids"	"off_signer"	"1"	14	14	1500	14	32	0	1	32	0.725352112676056	TRUE	FALSE	TRUE	"off_signer"	"off_signer"
"30014"	33	"M"	"sol-vanilla-2"	7	""	"birdy1R.pct"	""	"kitty1L.pct"	"l"	"birdy1R.pct"	"Vanilla"	"D"	1	1167	1792	8000	"0.5"	"0.5"	"0.5"	"0.5"	"0.5"	"0.5"	"0.5"	"0.5"	"0.5"	"0.5"	"0.5"	"0.5"	"0.5"	"0.5"	"0.5"	"0.5"	"0.5"	"0.5"	"0.5"	"0.5"	"0.5"	"0.5"	"0.5"	"0.5"	"0.5"	"0.5"	"0.5"	"0.5"	"0.5"	"0.5"	"0.5"	"0.5"	"0.5"	"0.5"	"0.5"	"."	"1"	"1"	"1"	"1"	"1"	"1"	"1"	"1"	"1"	"1"	"1"	"1"	"1"	"1"	"1"	"1"	"1"	"1"	"1"	"1"	"1"	"1"	"1"	"1"	"1"	"1"	"1"	"1"	"1"	"1"	"1"	"1"	"1"	"1"	"1"	"1"	"1"	"1"	"1"	"1"	"1"	"1"	"1"	"1"	"1"	"1"	"1"	"1"	"1"	"1"	"."	"."	"0.5"	"0.5"	"0.5"	"0.5"	"0.5"	"0.5"	"0.5"	"0.5"	"0.5"	"0.5"	"0.5"	"0.5"	"0.5"	"0.5"	"0.5"	"0.5"	"0.5"	""	""	""	""	""	""	""	""	""	""	""	""	""	""	""	""	""	""	""	""	""	""	""	""	""	""	""	""	""	""	""	""	""	""	""	""	""	""	""	""	""	""	NA	NA	NA	NA	NA	"1167"	NA	0	0	3000	600	3000	"sol-ichart-v1-post-gating"	"./"	"V1"	NA	NA	NA	"yes"	"OK"	"child"	80	"deaf"	"birdy"	"none"	"known_sign"	24	"include"	">= 27 Months"	"Kids"	"C_T"	"1"	2	3	2867	1	50	1167	2	50	0.857142857142857	TRUE	TRUE	TRUE	"C_T"	"C_T"
"30014"	33	"M"	"sol-vanilla-2"	12	""	"kitty3R.pct"	""	"birdy3L.pct"	"l"	"kitty3R.pct"	"Vanilla"	"D"	7	2533	2132	8000	"0.5"	"0.5"	"0.5"	"0.5"	"0.5"	"0.5"	"0.5"	"0.5"	"0.5"	"0.5"	"0.5"	"0.5"	"0.5"	"0.5"	"0.5"	"0.5"	"0.5"	"0.5"	"0.5"	"0.5"	"0.5"	"0.5"	"0.5"	"0.5"	"0.5"	"0.5"	"0.5"	"0.5"	"0.5"	"0.5"	"0.5"	"0.5"	"0.5"	"0.5"	"0.5"	"0.5"	"0.5"	"0.5"	"0.5"	"0.5"	"0.5"	"0.5"	"0.5"	"0.5"	"0.5"	"0.5"	"0.5"	"0.5"	"0.5"	"0.5"	"0.5"	"0.5"	"0.5"	"0.5"	"0.5"	"0.5"	"0.5"	"0.5"	"0.5"	"0.5"	"0.5"	"0.5"	"0.5"	"0.5"	"0.5"	"0.5"	"0.5"	"0.5"	"0.5"	"0.5"	"0.5"	"0.5"	"0.5"	"0.5"	"0.5"	"0.5"	"."	"."	"."	"."	"."	"."	"."	"0"	"0"	"0"	"0"	"0"	"0"	"0"	"0"	"0"	"0"	"0"	"0"	"0"	"0"	"0"	"0"	"0"	"0"	"0"	"0"	"0"	"0"	"0"	"0"	"0"	"0"	"0"	"0"	"0"	"0"	"0"	"0"	"0"	"0"	"0"	"0"	"0"	"0"	"0"	"0"	"0"	"0"	"0"	"0"	"0"	"0"	"0"	"0"	"0"	"0"	"0"	"0"	"0"	"0"	"0"	"0"	"0"	""	""	""	""	""	""	""	NA	NA	NA	NA	NA	"2533"	NA	0	0	3000	600	3000	"sol-ichart-v1-post-gating"	"./"	"V1"	NA	NA	NA	"yes"	"OK"	"child"	80	"deaf"	"kitty"	"none"	"known_sign"	24	"include"	">= 27 Months"	"Kids"	"C_D"	"0"	7	7	2533	7	8	NA	1	8	0.439393939393939	TRUE	FALSE	TRUE	"no_shift"	"no_shift"
"30014"	33	"M"	"sol-vanilla-2"	14	""	"ball3R.pct"	""	"shoe3L.pct"	"l"	"ball3R.pct"	"Vanilla"	"D"	2	1633	2132	8000	"0.5"	"0.5"	"0.5"	"0.5"	"0.5"	"0.5"	"0.5"	"0.5"	"0.5"	"0.5"	"0.5"	"0.5"	"0.5"	"0.5"	"0.5"	"0.5"	"0.5"	"0.5"	"0.5"	"0.5"	"0.5"	"0.5"	"0.5"	"0.5"	"0.5"	"0.5"	"0.5"	"0.5"	"0.5"	"0.5"	"0.5"	"0.5"	"0.5"	"0.5"	"0.5"	"0.5"	"0.5"	"0.5"	"0.5"	"0.5"	"0.5"	"0.5"	"0.5"	"0.5"	"0.5"	"0.5"	"0.5"	"0.5"	"0.5"	"."	"."	"1"	"1"	"1"	"1"	"1"	"1"	"1"	"1"	"1"	"1"	"1"	"1"	"1"	"1"	"1"	"1"	"1"	"1"	"1"	"1"	"1"	"1"	"1"	"1"	"1"	"1"	"."	"."	"."	"."	"."	"."	"."	"."	"."	"."	"."	"."	"."	"."	"."	"."	"."	"."	"."	"."	"."	"."	"."	"."	"."	"."	"."	"."	"."	"."	"."	"."	"."	"."	"."	"."	"."	"."	"."	"."	"."	"."	"."	"-"	"."	"1"	"1"	"1"	"1"	"1"	"1"	"1"	"1"	"1"	"1"	"1"	"1"	"1"	"1"	"1"	""	""	""	""	""	""	""	""	""	""	NA	NA	NA	NA	NA	"1633"	NA	0	0	3000	600	3000	"sol-ichart-v1-post-gating"	"./"	"V1"	NA	NA	NA	"yes"	"OK"	"child"	80	"deaf"	"ball"	"none"	"known_sign"	24	"include"	">= 27 Months"	"Kids"	"C_T"	"1"	14	16	2567	2	26	1633	2	26	0.728070175438597	TRUE	TRUE	TRUE	"C_T"	"C_T"
"30014"	33	"M"	"sol-vanilla-2"	18	""	"ball4R.pct"	""	"shoe4L.pct"	"r"	"shoe4L.pct"	"Vanilla"	"D"	1	1800	3000	8000	"0.5"	"0.5"	"0.5"	"0.5"	"0.5"	"0.5"	"0.5"	"0.5"	"0.5"	"0.5"	"0.5"	"0.5"	"0.5"	"0.5"	"0.5"	"0.5"	"0.5"	"0.5"	"0.5"	"0.5"	"0.5"	"0.5"	"0.5"	"0.5"	"0.5"	"0.5"	"0.5"	"0.5"	"0.5"	"0.5"	"0.5"	"0.5"	"0.5"	"0.5"	"0.5"	"0.5"	"0.5"	"0.5"	"0.5"	"0.5"	"0.5"	"0.5"	"0.5"	"0.5"	"0.5"	"0.5"	"0.5"	"0.5"	"0.5"	"0.5"	"0.5"	"0.5"	"0.5"	"0.5"	"."	"1"	"1"	"1"	"1"	"1"	"1"	"1"	"1"	"1"	"1"	"1"	"1"	"1"	"1"	"1"	"1"	"1"	"1"	"1"	"1"	"1"	"1"	"1"	"1"	"1"	"1"	"1"	"1"	"."	"0.5"	"0.5"	"0.5"	"0.5"	"0.5"	"0.5"	"0.5"	"0.5"	"0.5"	"0.5"	"0.5"	"0.5"	"0.5"	"0.5"	"0.5"	"0.5"	"0.5"	"0.5"	"0.5"	"0.5"	"0.5"	"0.5"	"0.5"	"0.5"	"0.5"	"0.5"	"0.5"	"0.5"	"0.5"	"0.5"	"0.5"	"0.5"	"0.5"	"0.5"	"0.5"	"0.5"	"0.5"	"0.5"	"0.5"	"0.5"	"0.5"	"0.5"	"0.5"	"0.5"	"0.5"	"0.5"	"0.5"	"0.5"	"0.5"	"0.5"	"0.5"	"0.5"	"0.5"	"0.5"	"0.5"	"0.5"	"0.5"	"0.5"	"0.5"	"0.5"	"0.5"	""	""	NA	NA	NA	NA	NA	"1800"	NA	0	0	3000	600	3000	"sol-ichart-v1-post-gating"	"./"	"V1"	NA	NA	NA	"yes"	"OK"	"child"	80	"deaf"	"shoe"	"none"	"known_sign"	24	"include"	">= 27 Months"	"Kids"	"C_T"	"1"	1	2	1800	1	28	1800	2	28	0.697183098591549	TRUE	TRUE	TRUE	"C_T"	"C_T"
"30014"	33	"M"	"sol-vanilla-2"	20	""	"birdy2R.pct"	""	"kitty2L.pct"	"l"	"birdy2R.pct"	"Vanilla"	"D"	2	1200	1924	8000	"0.5"	"0.5"	"0.5"	"0.5"	"0.5"	"0.5"	"0.5"	"0.5"	"0.5"	"0.5"	"0.5"	"0.5"	"0.5"	"0.5"	"0.5"	"0.5"	"0.5"	"0.5"	"0.5"	"0.5"	"0.5"	"0.5"	"0.5"	"0.5"	"0.5"	"0.5"	"0.5"	"0.5"	"0.5"	"0.5"	"0.5"	"0.5"	"0.5"	"0.5"	"0.5"	"0.5"	"."	"."	"1"	"1"	"1"	"1"	"1"	"."	"."	"0"	"0"	"0"	"0"	"0"	"0"	"0"	"0"	"0"	"0"	"0"	"0"	"0"	"0"	"."	"."	"1"	"1"	"1"	"1"	"1"	"1"	"1"	"1"	"1"	"1"	"1"	"1"	"1"	"1"	"1"	"1"	"1"	"1"	"1"	"1"	"1"	"1"	"1"	"1"	"1"	"1"	"1"	"."	"."	"0.5"	"0.5"	"0.5"	"0.5"	"0.5"	"0.5"	"0.5"	"0.5"	""	""	""	""	""	""	""	""	""	""	""	""	""	""	""	""	""	""	""	""	""	""	""	""	""	""	""	""	""	""	""	""	""	""	""	""	""	""	""	""	""	""	""	""	""	""	""	""	""	NA	NA	NA	NA	NA	"1200"	NA	0	0	3000	600	3000	"sol-ichart-v1-post-gating"	"./"	"V1"	NA	NA	NA	"yes"	"OK"	"child"	80	"deaf"	"birdy"	"none"	"known_sign"	24	"include"	">= 27 Months"	"Kids"	"C_T"	"1"	2	8	1200	2	27	1967	4	5	0.638461538461538	TRUE	TRUE	TRUE	"C_T"	"C_T"
"30014"	33	"M"	"sol-vanilla-2"	22	""	"shoe2R.pct"	""	"ball2L.pct"	"r"	"ball2L.pct"	"Vanilla"	"D"	2	1367	2132	8000	"0.5"	"0.5"	"0.5"	"0.5"	"0.5"	"0.5"	"0.5"	"0.5"	"0.5"	"0.5"	"0.5"	"0.5"	"0.5"	"0.5"	"0.5"	"0.5"	"0.5"	"0.5"	"0.5"	"0.5"	"0.5"	"0.5"	"0.5"	"0.5"	"0.5"	"0.5"	"0.5"	"0.5"	"0.5"	"0.5"	"0.5"	"0.5"	"0.5"	"0.5"	"0.5"	"0.5"	"0.5"	"0.5"	"0.5"	"0.5"	"0.5"	"."	"."	"1"	"1"	"1"	"1"	"1"	"1"	"1"	"1"	"1"	"1"	"1"	"1"	"1"	"1"	"1"	"1"	"1"	"1"	"1"	"1"	"1"	"1"	"1"	"1"	"1"	"1"	"1"	"1"	"1"	"."	"0.5"	"0.5"	"0.5"	"0.5"	"0.5"	"0.5"	"0.5"	"0.5"	"0.5"	"0.5"	"0.5"	"0.5"	"0.5"	"0.5"	"0.5"	"0.5"	"0.5"	"0.5"	"0.5"	"0.5"	"0.5"	"0.5"	"."	"1"	"1"	"1"	"1"	"1"	"1"	"1"	"1"	"1"	"1"	"1"	"1"	"."	"."	"."	"."	"."	"0.5"	"0.5"	"0.5"	"0.5"	"0.5"	"0.5"	"0.5"	"0.5"	"0.5"	"0.5"	"0.5"	"0.5"	"0.5"	"0.5"	"0.5"	"0.5"	"0.5"	"0.5"	"0.5"	"0.5"	"0.5"	"0.5"	"0.5"	""	""	""	""	""	""	""	""	""	""	""	NA	NA	NA	NA	NA	"1367"	NA	0	0	3000	600	3000	"sol-ichart-v1-post-gating"	"./"	"V1"	NA	NA	NA	"yes"	"OK"	"child"	80	"deaf"	"ball"	"none"	"known_sign"	24	"include"	">= 27 Months"	"Kids"	"C_T"	"1"	2	3	1367	2	29	1367	2	29	0.707142857142857	TRUE	TRUE	TRUE	"C_T"	"C_T"
"30014"	33	"M"	"sol-vanilla-2"	23	""	"teddy1R.pct"	""	"doll2L.pct"	"l"	"teddy1R.pct"	"Vanilla"	"D"	2	1333	1957	8000	"0.5"	"0.5"	"0.5"	"0.5"	"0.5"	"0.5"	"0.5"	"0.5"	"0.5"	"0.5"	"0.5"	"0.5"	"0.5"	"0.5"	"0.5"	"0.5"	"0.5"	"0.5"	"0.5"	"0.5"	"0.5"	"0.5"	"0.5"	"0.5"	"0.5"	"0.5"	"0.5"	"0.5"	"0.5"	"0.5"	"0.5"	"0.5"	"0.5"	"0.5"	"0.5"	"0.5"	"0.5"	"0.5"	"0.5"	"0.5"	"."	"."	"1"	"1"	"1"	"1"	"1"	"1"	"1"	"1"	"1"	"1"	"1"	"1"	"1"	"1"	"1"	"1"	"1"	"1"	"1"	"1"	"1"	"1"	"1"	"1"	"1"	"."	"."	"0"	"0"	"0"	"0"	"0"	"0"	"0"	"0"	"0"	"0"	"0"	"0"	"0"	"0"	"0"	"0"	"0"	"0"	"0"	"0"	"0"	"0"	"0"	"0"	"0"	"0"	"0"	"0"	"0"	"0"	"0"	"0"	"0"	"0"	"0"	"0"	"0"	"0"	"0"	"0"	"0"	"0"	"0"	"0"	"0"	"0"	"."	"."	"0.5"	"0.5"	"0.5"	"0.5"	"0.5"	"0.5"	"0.5"	"0.5"	"0.5"	"0.5"	""	""	""	""	""	""	""	""	""	""	""	""	""	""	""	""	""	""	""	""	NA	NA	NA	NA	NA	"1333"	NA	0	0	3000	600	3000	"sol-ichart-v1-post-gating"	"./"	"V1"	NA	NA	NA	"yes"	"OK"	"child"	80	"deaf"	"teddy"	"none"	"known_sign"	24	"include"	">= 27 Months"	"Kids"	"C_T"	"1"	2	4	1333	2	25	1333	2	25	0.521739130434783	TRUE	TRUE	TRUE	"C_T"	"C_T"
"30014"	33	"M"	"sol-vanilla-2"	24	""	"car3R.pct"	""	"book3L.pct"	"l"	"car3R.pct"	"Vanilla"	"A"	2	0	1759	8000	"."	"."	"."	"."	"."	"."	"."	"."	"."	"-"	"."	"0.5"	"0.5"	"0.5"	"0.5"	"0.5"	"0.5"	"0.5"	"0.5"	"0.5"	"0.5"	"0.5"	"0.5"	"0.5"	"0.5"	"0.5"	"0.5"	"0.5"	"0.5"	"0.5"	"0.5"	"0.5"	"0.5"	"0.5"	"0.5"	"0.5"	"0.5"	"0.5"	"0.5"	"0.5"	"0.5"	"0.5"	"0.5"	"0.5"	"0.5"	"0.5"	"0.5"	"."	"."	"1"	"1"	"1"	"1"	"1"	"1"	"1"	"1"	"1"	"1"	"1"	"1"	"1"	"1"	"1"	"1"	"1"	"1"	"1"	"1"	"1"	"1"	"1"	"1"	"."	"."	"0"	"0"	"0"	"."	"."	"."	"."	"."	"."	"."	"."	"."	"."	"."	"."	"."	"."	"."	"."	"."	"-"	"."	"0"	"0"	"0"	"0"	"0"	"0"	"."	"0.5"	"0.5"	"0.5"	"0.5"	"0.5"	"0.5"	"0.5"	""	""	""	""	""	""	""	""	""	""	""	""	""	""	""	""	""	""	""	""	""	""	""	""	""	""	""	""	""	""	""	""	""	""	""	""	NA	NA	NA	NA	NA	"2433"	NA	0	0	3000	600	3000	"sol-ichart-v1-post-gating"	"./"	"V1"	NA	NA	NA	"yes"	"OK"	"child"	80	"deaf"	"car"	"none"	"known_sign"	24	"include"	">= 27 Months"	"Kids"	"off_signer"	"1"	13	28	1200	13	24	0	3	24	0.6875	TRUE	FALSE	TRUE	"off_signer"	"off_signer"
"30014"	33	"M"	"sol-vanilla-2"	25	""	"birdy3R.pct"	""	"kitty3L.pct"	"r"	"kitty3L.pct"	"Vanilla"	"D"	2	1033	2132	8000	"0.5"	"0.5"	"0.5"	"0.5"	"0.5"	"0.5"	"0.5"	"0.5"	"0.5"	"0.5"	"0.5"	"0.5"	"0.5"	"0.5"	"0.5"	"0.5"	"0.5"	"0.5"	"0.5"	"0.5"	"0.5"	"0.5"	"0.5"	"0.5"	"0.5"	"0.5"	"0.5"	"0.5"	"0.5"	"0.5"	"0.5"	"."	"."	"1"	"1"	"1"	"1"	"1"	"1"	"1"	"1"	"1"	"1"	"1"	"1"	"1"	"1"	"1"	"1"	"1"	"1"	"1"	"1"	"1"	"1"	"1"	"1"	"1"	"."	"."	"0"	"0"	"0"	"0"	"0"	"0"	"0"	"0"	"0"	"0"	"0"	"0"	"."	"0.5"	"0.5"	"0.5"	"0.5"	"0.5"	"0.5"	"0.5"	"0.5"	"0.5"	"0.5"	"0.5"	"0.5"	"0.5"	"0.5"	"0.5"	"0.5"	"0.5"	"0.5"	"0.5"	"0.5"	"."	"."	"0"	"0"	"0"	"0"	"0"	"0"	"0"	"0"	"0"	"0"	"0"	"0"	"0"	"."	"0.5"	"0.5"	"0.5"	"0.5"	"0.5"	"0.5"	"0.5"	"0.5"	"0.5"	"0.5"	"0.5"	"0.5"	"0.5"	"0.5"	"0.5"	"0.5"	"0.5"	"0.5"	"0.5"	"0.5"	"0.5"	"0.5"	"."	"."	"."	"."	"."	"."	"."	"."	"."	""	""	""	""	""	""	""	NA	NA	NA	NA	NA	"1033"	NA	0	0	3000	600	3000	"sol-ichart-v1-post-gating"	"./"	"V1"	NA	NA	NA	"yes"	"OK"	"child"	80	"deaf"	"kitty"	"none"	"known_sign"	24	"include"	">= 27 Months"	"Kids"	"C_T"	"1"	2	5	1033	2	25	1033	3	25	0.595588235294118	TRUE	TRUE	TRUE	"C_T"	"C_T"
"30014"	33	"M"	"sol-vanilla-2"	26	""	"shoe3R.pct"	""	"ball3L.pct"	"l"	"shoe3R.pct"	"Vanilla"	"D"	2	633	3000	8000	"0.5"	"0.5"	"0.5"	"0.5"	"0.5"	"0.5"	"0.5"	"0.5"	"0.5"	"0.5"	"0.5"	"0.5"	"0.5"	"0.5"	"0.5"	"0.5"	"0.5"	"0.5"	"0.5"	"."	"."	"1"	"1"	"1"	"1"	"1"	"1"	"1"	"1"	"1"	"1"	"1"	"1"	"1"	"1"	"1"	"1"	"1"	"1"	"."	"."	"0.5"	"0.5"	"0.5"	"0.5"	"0.5"	"0.5"	"0.5"	"0.5"	"0.5"	"0.5"	"0.5"	"0.5"	"0.5"	"0.5"	"0.5"	"0.5"	"0.5"	"0.5"	"0.5"	"0.5"	"0.5"	"0.5"	"0.5"	"0.5"	"0.5"	"0.5"	"0.5"	"0.5"	"0.5"	"0.5"	"0.5"	"0.5"	"0.5"	"0.5"	"0.5"	"0.5"	"0.5"	"0.5"	"0.5"	"0.5"	"0.5"	"."	"."	"."	"."	"."	"."	"1"	"1"	"1"	"1"	"."	"."	"0.5"	"0.5"	"0.5"	"0.5"	"0.5"	"0.5"	"0.5"	"0.5"	"0.5"	"0.5"	"0.5"	"0.5"	"0.5"	"0.5"	"0.5"	"0.5"	"."	"."	"1"	"1"	"1"	"1"	"1"	"1"	"1"	"1"	"1"	"1"	"."	"."	"0.5"	"0.5"	"0.5"	"0.5"	"0.5"	"0.5"	"0.5"	"."	"1"	"1"	"1"	"1"	"1"	"1"	"1"	"1"	"1"	"1"	"1"	"1"	"1"	""	""	NA	NA	NA	NA	NA	"633"	NA	0	0	3000	600	3000	"sol-ichart-v1-post-gating"	"./"	"V1"	NA	NA	NA	"yes"	"OK"	"child"	80	"deaf"	"shoe"	"none"	"known_sign"	24	"include"	">= 27 Months"	"Kids"	"C_T"	"1"	8	10	2667	2	18	633	2	18	0.666666666666667	TRUE	TRUE	TRUE	"C_T"	"C_T"
"30014"	33	"M"	"sol-vanilla-2"	27	""	"teddy2.pct"	""	"doll3L.pct"	"r"	"doll3L.pct"	"Vanilla"	"D"	1	2400	1924	8000	"0.5"	"0.5"	"0.5"	"0.5"	"0.5"	"0.5"	"0.5"	"0.5"	"0.5"	"0.5"	"0.5"	"0.5"	"0.5"	"0.5"	"0.5"	"0.5"	"0.5"	"0.5"	"0.5"	"0.5"	"0.5"	"0.5"	"0.5"	"0.5"	"0.5"	"0.5"	"0.5"	"0.5"	"0.5"	"0.5"	"0.5"	"0.5"	"0.5"	"0.5"	"0.5"	"0.5"	"0.5"	"0.5"	"0.5"	"0.5"	"0.5"	"0.5"	"0.5"	"0.5"	"0.5"	"0.5"	"0.5"	"0.5"	"0.5"	"0.5"	"0.5"	"0.5"	"0.5"	"0.5"	"0.5"	"0.5"	"0.5"	"0.5"	"0.5"	"0.5"	"0.5"	"0.5"	"0.5"	"0.5"	"0.5"	"0.5"	"0.5"	"0.5"	"0.5"	"0.5"	"0.5"	"0.5"	"."	"0"	"0"	"0"	"0"	"0"	"0"	"0"	"0"	"0"	"0"	"."	"."	"1"	"1"	"1"	"1"	"1"	"1"	"1"	"1"	"1"	"1"	"1"	"1"	"1"	"1"	"1"	"1"	"1"	"1"	"1"	"1"	"."	"."	"0.5"	"0.5"	"0.5"	"0.5"	"0.5"	"0.5"	"0.5"	"0.5"	"0.5"	""	""	""	""	""	""	""	""	""	""	""	""	""	""	""	""	""	""	""	""	""	""	""	""	""	""	""	""	""	""	""	NA	NA	NA	NA	NA	"2400"	NA	0	0	3000	600	3000	"sol-ichart-v1-post-gating"	"./"	"V1"	NA	NA	NA	"yes"	"OK"	"child"	80	"deaf"	"doll"	"none"	"known_sign"	24	"include"	">= 27 Months"	"Kids"	"C_D"	"0"	2	3	2767	1	10	2767	2	10	0.471428571428571	TRUE	TRUE	TRUE	"C_D"	"C_D"
"30014"	33	"M"	"sol-vanilla-2"	30	""	"ball1R.pct"	""	"shoe1L.pct"	"l"	"ball1R.pct"	"Vanilla"	"A"	1	0	1825	8000	"."	"."	"0.5"	"0.5"	"0.5"	"0.5"	"0.5"	"0.5"	"0.5"	"0.5"	"0.5"	"0.5"	"0.5"	"0.5"	"0.5"	"0.5"	"0.5"	"0.5"	"0.5"	"0.5"	"0.5"	"0.5"	"0.5"	"0.5"	"0.5"	"0.5"	"0.5"	"0.5"	"0.5"	"."	"."	"0"	"0"	"0"	"0"	"0"	"0"	"."	"."	"0.5"	"0.5"	"0.5"	"0.5"	"0.5"	"."	"1"	"1"	"1"	"1"	"1"	"1"	"1"	"1"	"1"	"1"	"1"	"1"	"1"	"1"	"1"	"."	"."	"0.5"	"0.5"	"0.5"	"0.5"	"0.5"	"0.5"	"0.5"	"0.5"	"0.5"	"0.5"	"0.5"	"0.5"	"0.5"	"0.5"	"0.5"	"0.5"	"0.5"	"."	"."	"1"	"1"	"1"	"1"	"1"	"1"	"1"	"1"	"1"	"1"	"1"	"1"	"1"	"1"	"1"	"1"	"1"	"1"	"1"	""	""	""	""	""	""	""	""	""	""	""	""	""	""	""	""	""	""	""	""	""	""	""	""	""	""	""	""	""	""	""	""	""	""	""	""	""	""	""	""	""	""	""	""	""	""	""	NA	NA	NA	NA	NA	"1467"	NA	0	0	3000	600	3000	"sol-ichart-v1-post-gating"	"./"	"V1"	NA	NA	NA	"yes"	"OK"	"child"	80	"deaf"	"ball"	"none"	"known_sign"	24	"include"	">= 27 Months"	"Kids"	"off_signer"	"1"	4	11	900	4	15	1233	3	6	0.6484375	TRUE	FALSE	TRUE	"off_signer"	"off_signer"
"30014"	33	"M"	"sol-vanilla-2"	31	""	"doll1R.pct"	""	"teddy3.pct"	"r"	"teddy3.pct"	"Vanilla"	"D"	2	1367	1957	8000	"0.5"	"0.5"	"0.5"	"0.5"	"0.5"	"0.5"	"0.5"	"0.5"	"0.5"	"0.5"	"0.5"	"0.5"	"0.5"	"0.5"	"0.5"	"0.5"	"0.5"	"0.5"	"0.5"	"0.5"	"0.5"	"0.5"	"0.5"	"0.5"	"0.5"	"0.5"	"0.5"	"0.5"	"0.5"	"0.5"	"0.5"	"0.5"	"0.5"	"0.5"	"0.5"	"0.5"	"0.5"	"0.5"	"0.5"	"0.5"	"0.5"	"."	"."	"1"	"1"	"1"	"1"	"1"	"1"	"1"	"1"	"1"	"1"	"1"	"1"	"1"	"1"	"1"	"1"	"1"	"1"	"1"	"1"	"1"	"1"	"1"	"1"	"1"	"1"	"."	"."	"0"	"0"	"0"	"0"	"0"	"0"	"0"	"0"	"0"	"0"	"0"	"0"	"0"	"0"	"0"	"0"	"0"	"0"	"0"	"0"	"0"	"0"	"0"	"0"	"0"	"0"	"0"	"0"	"0"	"0"	"0"	"0"	"0"	"0"	"0"	"0"	"0"	"0"	"0"	"0"	"0"	"0"	"0"	"0"	"."	"."	"0.5"	"0.5"	"0.5"	"0.5"	"0.5"	"0.5"	"0.5"	"0.5"	"0.5"	"0.5"	"0.5"	""	""	""	""	""	""	""	""	""	""	""	""	""	""	""	""	""	""	""	NA	NA	NA	NA	NA	"1367"	NA	0	0	3000	600	3000	"sol-ichart-v1-post-gating"	"./"	"V1"	NA	NA	NA	"yes"	"OK"	"child"	80	"deaf"	"teddy"	"none"	"known_sign"	24	"include"	">= 27 Months"	"Kids"	"C_T"	"1"	2	4	1367	2	26	1367	2	26	0.543478260869565	TRUE	TRUE	TRUE	"C_T"	"C_T"
"30014"	33	"M"	"sol-vanilla-2"	34	""	"ball4R.pct"	""	"shoe4L.pct"	"r"	"shoe4L.pct"	"Vanilla"	"D"	2	1600	3000	8000	"0.5"	"0.5"	"0.5"	"0.5"	"0.5"	"0.5"	"0.5"	"0.5"	"0.5"	"0.5"	"0.5"	"0.5"	"0.5"	"0.5"	"0.5"	"0.5"	"0.5"	"0.5"	"0.5"	"0.5"	"0.5"	"0.5"	"0.5"	"0.5"	"0.5"	"0.5"	"0.5"	"0.5"	"0.5"	"0.5"	"0.5"	"0.5"	"0.5"	"0.5"	"0.5"	"0.5"	"0.5"	"0.5"	"0.5"	"0.5"	"0.5"	"0.5"	"0.5"	"0.5"	"0.5"	"0.5"	"0.5"	"0.5"	"."	"."	"0"	"0"	"0"	"0"	"0"	"0"	"0"	"0"	"0"	"0"	"0"	"0"	"0"	"0"	"."	"."	"1"	"1"	"1"	"1"	"1"	"1"	"1"	"1"	"1"	"1"	"1"	"1"	"1"	"1"	"1"	"1"	"1"	"1"	"1"	"1"	"1"	"1"	"1"	"1"	"1"	"1"	"1"	"1"	"1"	"1"	"1"	"1"	"1"	"1"	"1"	"1"	"1"	"1"	"1"	"1"	"1"	"1"	"1"	"."	"."	"0.5"	"0.5"	"0.5"	"0.5"	"0.5"	"0.5"	"0.5"	"0.5"	"0.5"	"0.5"	"0.5"	"."	"."	"."	"."	"."	"."	"1"	"1"	"1"	"1"	"1"	"1"	"1"	"1"	"1"	"1"	"1"	"1"	"1"	"1"	"1"	"1"	""	""	""	NA	NA	NA	NA	NA	"1600"	NA	0	0	3000	600	3000	"sol-ichart-v1-post-gating"	"./"	"V1"	NA	NA	NA	"yes"	"OK"	"child"	80	"deaf"	"shoe"	"none"	"known_sign"	24	"include"	">= 27 Months"	"Kids"	"C_D"	"1"	2	4	1600	2	25	2133	2	14	0.579710144927536	TRUE	TRUE	TRUE	"C_D"	"C_D"
"30014"	33	"M"	"sol-vanilla-2"	36	""	"book4R.pct"	""	"car4L.pct"	"r"	"car4L.pct"	"Vanilla"	"D"	2	1300	1759	8000	"0.5"	"0.5"	"0.5"	"0.5"	"0.5"	"0.5"	"0.5"	"0.5"	"0.5"	"0.5"	"0.5"	"0.5"	"0.5"	"0.5"	"0.5"	"0.5"	"0.5"	"0.5"	"0.5"	"0.5"	"0.5"	"0.5"	"0.5"	"0.5"	"0.5"	"0.5"	"0.5"	"0.5"	"0.5"	"0.5"	"0.5"	"0.5"	"0.5"	"0.5"	"0.5"	"0.5"	"0.5"	"0.5"	"0.5"	"."	"."	"1"	"1"	"1"	"1"	"1"	"1"	"1"	"1"	"1"	"1"	"1"	"1"	"1"	"1"	"1"	"1"	"1"	"1"	"1"	"1"	"1"	"1"	"1"	"1"	"1"	"1"	"1"	"1"	"1"	"1"	"1"	"1"	"1"	"1"	"."	"."	"0.5"	"0.5"	"0.5"	"0.5"	"0.5"	"0.5"	"0.5"	"0.5"	"0.5"	"0.5"	"0.5"	"0.5"	"0.5"	"0.5"	"0.5"	"0.5"	"0.5"	"0.5"	"0.5"	"0.5"	"0.5"	"0.5"	"0.5"	"0.5"	"0.5"	"0.5"	"0.5"	"0.5"	"0.5"	"0.5"	"0.5"	"0.5"	"0.5"	"0.5"	""	""	""	""	""	""	""	""	""	""	""	""	""	""	""	""	""	""	""	""	""	""	""	""	""	""	""	""	""	""	""	""	""	""	""	""	NA	NA	NA	NA	NA	"1300"	NA	0	0	3000	600	3000	"sol-ichart-v1-post-gating"	"./"	"V1"	NA	NA	NA	"yes"	"OK"	"child"	80	"deaf"	"car"	"none"	"known_sign"	24	"include"	">= 27 Months"	"Kids"	"C_T"	"1"	2	4	1300	2	34	1300	2	34	0.746376811594203	TRUE	TRUE	TRUE	"C_T"	"C_T"
"30015"	21	"F"	"sol-vanilla-1"	2	""	"doll1R.pct"	""	"teddy1R.pct"	"l"	"doll1R.pct"	"Vanilla"	"D"	5	1633	1891	8000	"0.5"	"0.5"	"0.5"	"0.5"	"0.5"	"0.5"	"0.5"	"0.5"	"0.5"	"0.5"	"0.5"	"0.5"	"0.5"	"0.5"	"0.5"	"0.5"	"0.5"	"0.5"	"0.5"	"0.5"	"0.5"	"0.5"	"0.5"	"0.5"	"0.5"	"0.5"	"0.5"	"0.5"	"0.5"	"0.5"	"0.5"	"0.5"	"0.5"	"0.5"	"0.5"	"0.5"	"0.5"	"0.5"	"0.5"	"0.5"	"0.5"	"0.5"	"0.5"	"0.5"	"0.5"	"0.5"	"0.5"	"0.5"	"0.5"	"."	"."	"."	"."	"."	"1"	"1"	"1"	"1"	"1"	"1"	"1"	"1"	"1"	"1"	"1"	"1"	"1"	"1"	"1"	"1"	"1"	"1"	"1"	"1"	"1"	"1"	"1"	"1"	"1"	"1"	"1"	"1"	"1"	"1"	"1"	"1"	"1"	"1"	"."	"."	"0"	"0"	"0"	"0"	"0"	"0"	"0"	"0"	"0"	"0"	"0"	"0"	"0"	"0"	"0"	"0"	"0"	"0"	"0"	"0"	"0"	"0"	"0"	"0"	"0"	"0"	"0"	"0"	"0"	""	""	""	""	""	""	""	""	""	""	""	""	""	""	""	""	""	""	""	""	""	""	""	""	""	""	""	""	NA	NA	NA	NA	NA	"1633"	NA	0	0	3000	600	3000	"sol-ichart-v1-post-gating"	"./"	"V1"	NA	NA	NA	"yes"	"OK"	"child"	41	"deaf"	"doll"	"none"	"known_sign"	17	"include"	"< 27 Months"	"Kids"	"C_T"	"1"	5	7	1633	5	34	1633	2	34	0.75	TRUE	TRUE	TRUE	"C_T"	"C_T"
"30015"	21	"F"	"sol-vanilla-1"	3	""	"book1R.pct"	""	"car1L.pct"	"r"	"car1L.pct"	"Vanilla"	"D"	2	1300	1759	8000	"0.5"	"0.5"	"0.5"	"0.5"	"0.5"	"0.5"	"0.5"	"0.5"	"0.5"	"0.5"	"0.5"	"0.5"	"0.5"	"0.5"	"0.5"	"0.5"	"0.5"	"0.5"	"0.5"	"0.5"	"0.5"	"0.5"	"0.5"	"0.5"	"0.5"	"0.5"	"0.5"	"0.5"	"0.5"	"0.5"	"0.5"	"0.5"	"0.5"	"0.5"	"0.5"	"0.5"	"0.5"	"0.5"	"0.5"	"."	"."	"0"	"0"	"0"	"0"	"0"	"0"	"0"	"0"	"0"	"0"	"0"	"0"	"0"	"0"	"0"	"0"	"0"	"0"	"0"	"."	"."	"1"	"1"	"1"	"1"	"1"	"1"	"1"	"1"	"1"	"1"	"1"	"1"	"1"	"1"	"1"	"1"	"1"	"1"	"1"	"1"	"1"	"1"	"1"	"1"	"1"	"1"	"1"	"1"	"1"	"1"	"1"	"1"	"1"	"1"	"1"	"."	"."	"0"	"0"	"0"	"0"	"0"	"0"	"0"	"0"	"0"	"0"	""	""	""	""	""	""	""	""	""	""	""	""	""	""	""	""	""	""	""	""	""	""	""	""	""	""	""	""	""	""	""	""	""	""	""	""	""	""	NA	NA	NA	NA	NA	"1300"	NA	0	0	3000	600	3000	"sol-ichart-v1-post-gating"	"./"	"V1"	NA	NA	NA	"yes"	"OK"	"child"	41	"deaf"	"car"	"none"	"known_sign"	17	"include"	"< 27 Months"	"Kids"	"C_D"	"1"	2	4	1300	2	29	2000	2	19	0.572463768115942	TRUE	TRUE	TRUE	"C_D"	"C_D"
"30015"	21	"F"	"sol-vanilla-1"	5	""	"doll2R.pct"	""	"teddy3.pct"	"r"	"teddy3.pct"	"Vanilla"	"A"	2	33	1957	8000	"1"	"."	"."	"0"	"0"	"0"	"0"	"0"	"0"	"0"	"0"	"0"	"0"	"0"	"0"	"0"	"0"	"0"	"0"	"0"	"0"	"0"	"0"	"0"	"0"	"0"	"0"	"0"	"0"	"0"	"0"	"0"	"0"	"0"	"0"	"0"	"0"	"0"	"0"	"0"	"0"	"0"	"0"	"0"	"0"	"0"	"0"	"0"	"0"	"0"	"."	"0.5"	"0.5"	"0.5"	"0.5"	"0.5"	"0.5"	"0.5"	"0.5"	"0.5"	"0.5"	"0.5"	"0.5"	"0.5"	"0.5"	"0.5"	"0.5"	"0.5"	"0.5"	"0.5"	"0.5"	"0.5"	"0.5"	"0.5"	"0.5"	"0.5"	"0.5"	"0.5"	"0.5"	"0.5"	"0.5"	"0.5"	"0.5"	"0.5"	"0.5"	"0.5"	"0.5"	"0.5"	"0.5"	"0.5"	"0.5"	"0.5"	"0.5"	"0.5"	"0.5"	"0.5"	"0.5"	"0.5"	"0.5"	"0.5"	"0.5"	"0.5"	"0.5"	"0.5"	"0.5"	"0.5"	"0.5"	"0.5"	"0.5"	"0.5"	"0.5"	"0.5"	"0.5"	"0.5"	"0.5"	"0.5"	"0.5"	"0.5"	"0.5"	"0.5"	"0.5"	"0.5"	"0.5"	"0.5"	"0.5"	"0.5"	"0.5"	""	""	""	""	""	""	""	""	""	""	""	""	""	""	""	""	""	""	""	""	NA	NA	NA	NA	NA	"33"	NA	0	0	3000	600	3000	"sol-ichart-v1-post-gating"	"./"	"V1"	NA	NA	NA	"yes"	"OK"	"child"	41	"deaf"	"teddy"	"none"	"known_sign"	17	"include"	"< 27 Months"	"Kids"	"off_signer"	"0"	2	3	33	2	47	NA	2	47	0.277777777777778	TRUE	FALSE	TRUE	"off_signer"	"off_signer"
"30015"	21	"F"	"sol-vanilla-1"	6	""	"ball2R.pct"	""	"shoe2L.pct"	"r"	"shoe2L.pct"	"Vanilla"	"A"	2	167	1759	8000	"1"	"1"	"1"	"1"	"1"	"."	"."	"0"	"0"	"0"	"0"	"0"	"."	"."	"0.5"	"0.5"	"0.5"	"0.5"	"0.5"	"0.5"	"0.5"	"0.5"	"0.5"	"0.5"	"0.5"	"0.5"	"0.5"	"0.5"	"0.5"	"0.5"	"0.5"	"0.5"	"0.5"	"0.5"	"0.5"	"0.5"	"0.5"	"0.5"	"0.5"	"0.5"	"0.5"	"0.5"	"0.5"	"0.5"	"0.5"	"0.5"	"0.5"	"0.5"	"0.5"	"0.5"	"0.5"	"."	"."	"1"	"1"	"1"	"1"	"1"	"1"	"1"	"1"	"1"	"1"	"1"	"1"	"1"	"1"	"1"	"1"	"1"	"1"	"1"	"1"	"1"	"1"	"1"	"1"	"1"	"1"	"1"	"1"	"1"	"1"	"1"	"1"	"1"	"1"	"1"	"1"	"1"	"1"	"1"	"1"	"1"	"1"	"1"	"1"	"1"	"1"	"1"	"1"	"1"	"1"	"1"	"1"	"1"	"1"	"1"	"1"	"1"	"1"	"."	"."	"0"	"0"	"0"	"0"	"0"	"0"	"0"	"0"	"0"	"0"	"0"	"0"	""	""	""	""	""	""	""	""	""	""	""	""	""	""	""	""	""	""	""	""	""	""	NA	NA	NA	NA	NA	"167"	NA	0	0	3000	600	3000	"sol-ichart-v1-post-gating"	"./"	"V1"	NA	NA	NA	"yes"	"OK"	"child"	41	"deaf"	"shoe"	"none"	"known_sign"	17	"include"	"< 27 Months"	"Kids"	"off_signer"	"1"	4	6	1633	2	38	400	2	5	0.767605633802817	TRUE	FALSE	TRUE	"off_signer"	"off_signer"
"30015"	21	"F"	"sol-vanilla-1"	8	""	"book2R.pct"	""	"car2L.pct"	"l"	"book2R.pct"	"Vanilla"	"A"	NA	0	2132	8000	"."	"0.5"	"0.5"	"0.5"	"0.5"	"0.5"	"0.5"	"0.5"	"0.5"	"0.5"	"0.5"	"0.5"	"0.5"	"0.5"	"0.5"	"0.5"	"0.5"	"0.5"	"0.5"	"0.5"	"0.5"	"0.5"	"0.5"	"0.5"	"0.5"	"0.5"	"0.5"	"0.5"	"0.5"	"0.5"	"0.5"	"0.5"	"0.5"	"0.5"	"0.5"	"0.5"	"0.5"	"0.5"	"0.5"	"0.5"	"0.5"	"0.5"	"0.5"	"."	"1"	"1"	"1"	"1"	"1"	"1"	"1"	"1"	"1"	"1"	"1"	"1"	"1"	"1"	"1"	"1"	"1"	"1"	"1"	"1"	"1"	"1"	"1"	"1"	"1"	"1"	"1"	"1"	"1"	"1"	"1"	"1"	"1"	"1"	"1"	"1"	"1"	"1"	"1"	"1"	"1"	"1"	"1"	"1"	"1"	"1"	"1"	"1"	"1"	"1"	"1"	"1"	"1"	"1"	"1"	"1"	"1"	"1"	"1"	"1"	"1"	"1"	"1"	"1"	"1"	"1"	"1"	"1"	"1"	"1"	"1"	"1"	"1"	""	""	""	""	""	""	""	""	""	""	""	""	""	""	""	""	""	""	""	""	""	""	""	""	""	""	""	""	""	""	NA	NA	NA	NA	NA	""	NA	0	0	3000	600	3000	"sol-ichart-v1-post-gating"	"./"	"V1"	NA	NA	NA	"yes"	"OK"	"child"	41	"deaf"	"book"	"none"	"known_sign"	17	"include"	"< 27 Months"	"Kids"	"off_signer"	"1"	2	2	1400	2	47	0	1	47	0.826388888888889	TRUE	FALSE	TRUE	"off_signer"	"off_signer"
"30015"	21	"F"	"sol-vanilla-1"	9	""	"kitty2R.pct"	""	"birdy2L.pct"	"l"	"kitty2R.pct"	"Vanilla"	"D"	2	1200	3132	8000	"0.5"	"0.5"	"0.5"	"0.5"	"0.5"	"0.5"	"0.5"	"0.5"	"0.5"	"0.5"	"0.5"	"0.5"	"0.5"	"0.5"	"0.5"	"0.5"	"0.5"	"0.5"	"0.5"	"0.5"	"0.5"	"0.5"	"0.5"	"0.5"	"0.5"	"0.5"	"0.5"	"0.5"	"0.5"	"0.5"	"0.5"	"0.5"	"0.5"	"0.5"	"0.5"	"0.5"	"."	"."	"0"	"0"	"0"	"0"	"0"	"0"	"0"	"0"	"0"	"0"	"."	"."	"1"	"1"	"1"	"1"	"1"	"1"	"1"	"1"	"1"	"1"	"1"	"1"	"1"	"1"	"1"	"1"	"1"	"1"	"1"	"1"	"1"	"1"	"1"	"1"	"1"	"1"	"1"	"1"	"1"	"1"	"1"	"1"	"1"	"1"	"1"	"1"	"1"	"1"	"1"	"1"	"1"	"1"	"1"	"1"	"1"	"1"	"1"	"1"	"1"	"1"	"1"	"1"	"1"	"1"	"1"	"1"	"1"	"1"	"1"	"1"	"1"	"1"	"1"	"1"	"1"	"1"	"1"	"1"	"."	"."	"."	"."	"."	"."	"."	"."	"."	"."	"."	"."	"."	"."	"."	"."	""	""	""	""	""	""	""	""	""	""	""	""	""	NA	NA	NA	NA	NA	"1200"	NA	0	0	3000	600	3000	"sol-ichart-v1-post-gating"	"./"	"V1"	NA	NA	NA	"yes"	"OK"	"child"	41	"deaf"	"kitty"	"none"	"known_sign"	17	"include"	"< 27 Months"	"Kids"	"C_D"	"1"	2	4	1200	2	41	1600	2	10	0.72463768115942	TRUE	TRUE	TRUE	"C_D"	"C_D"
"30015"	21	"F"	"sol-vanilla-1"	13	""	"teddy2.pct"	""	"doll3L.pct"	"l"	"teddy2.pct"	"Vanilla"	"D"	2	33	1924	8000	"0.5"	"."	"."	"1"	"1"	"1"	"1"	"1"	"1"	"1"	"1"	"."	"0.5"	"0.5"	"0.5"	"0.5"	"0.5"	"0.5"	"0.5"	"0.5"	"0.5"	"0.5"	"0.5"	"0.5"	"0.5"	"0.5"	"0.5"	"0.5"	"0.5"	"0.5"	"0.5"	"0.5"	"0.5"	"0.5"	"0.5"	"0.5"	"0.5"	"0.5"	"0.5"	"0.5"	"0.5"	"0.5"	"0.5"	"0.5"	"0.5"	"0.5"	"0.5"	"0.5"	"0.5"	"0.5"	"."	"."	"1"	"1"	"1"	"1"	"1"	"1"	"1"	"1"	"1"	"1"	"1"	"1"	"1"	"1"	"1"	"1"	"1"	"1"	"1"	"1"	"1"	"1"	"1"	"1"	"1"	"1"	"1"	"1"	"1"	"1"	"1"	"1"	"."	"."	"."	"."	"."	"."	"."	"."	"."	"."	"."	"."	"."	"."	"."	""	""	""	""	""	""	""	""	""	""	""	""	""	""	""	""	""	""	""	""	""	""	""	""	""	""	""	""	""	""	""	""	""	""	""	""	""	""	""	""	""	""	""	""	""	""	""	""	NA	NA	NA	NA	NA	"33"	NA	0	0	3000	600	3000	"sol-ichart-v1-post-gating"	"./"	"V1"	NA	NA	NA	"yes"	"OK"	"child"	41	"deaf"	"teddy"	"none"	"known_sign"	17	"include"	"< 27 Months"	"Kids"	"C_T"	"1"	7	12	2800	2	32	367	3	8	0.75	TRUE	FALSE	TRUE	"C_T"	"C_T"
"30015"	21	"F"	"sol-vanilla-1"	14	""	"shoe3R.pct"	""	"ball3L.pct"	"r"	"ball3L.pct"	"Vanilla"	"A"	2	1633	2132	8000	"0"	"0"	"0"	"."	"."	"0.5"	"0.5"	"0.5"	"0.5"	"0.5"	"0.5"	"0.5"	"0.5"	"0.5"	"0.5"	"0.5"	"0.5"	"0.5"	"0.5"	"0.5"	"0.5"	"0.5"	"0.5"	"0.5"	"0.5"	"0.5"	"0.5"	"0.5"	"0.5"	"0.5"	"0.5"	"0.5"	"0.5"	"0.5"	"0.5"	"0.5"	"0.5"	"0.5"	"0.5"	"0.5"	"0.5"	"."	"."	"0"	"0"	"0"	"0"	"0"	"0"	"."	"."	"1"	"1"	"1"	"1"	"1"	"1"	"1"	"1"	"1"	"1"	"1"	"1"	"1"	"1"	"1"	"1"	"1"	"1"	"1"	"1"	"1"	"1"	"1"	"1"	"1"	"1"	"1"	"1"	"1"	"1"	"1"	"1"	"1"	"1"	"1"	"1"	"1"	"1"	"1"	"1"	"1"	"1"	"1"	"."	"0.5"	"0.5"	"0.5"	"0.5"	"0.5"	"0.5"	"0.5"	"0.5"	"0.5"	"0.5"	"0.5"	"0.5"	"0.5"	"0.5"	"0.5"	"0.5"	"0.5"	"0.5"	"0.5"	"0.5"	"0.5"	"0.5"	"0.5"	"0.5"	"0.5"	"0.5"	"0.5"	"0.5"	"0.5"	"0.5"	"0.5"	"0.5"	"0.5"	"0.5"	"0.5"	"0.5"	"0.5"	"0.5"	"0.5"	"0.5"	"0.5"	""	""	""	""	""	""	""	""	""	""	""	NA	NA	NA	NA	NA	"1633"	NA	0	0	3000	600	3000	"sol-ichart-v1-post-gating"	"./"	"V1"	NA	NA	NA	"yes"	"OK"	"child"	41	"deaf"	"ball"	"none"	"known_sign"	17	"include"	"< 27 Months"	"Kids"	"off_signer"	"1"	4	6	1300	2	40	1633	2	40	0.746376811594203	TRUE	TRUE	TRUE	"off_signer"	"off_signer"
"30015"	21	"F"	"sol-vanilla-1"	18	""	"shoe4R.pct"	""	"ball4L.pct"	"l"	"shoe4R.pct"	"Vanilla"	"D"	2	800	3000	8000	"0.5"	"0.5"	"0.5"	"0.5"	"0.5"	"0.5"	"0.5"	"0.5"	"0.5"	"0.5"	"0.5"	"0.5"	"0.5"	"0.5"	"0.5"	"0.5"	"0.5"	"0.5"	"0.5"	"0.5"	"0.5"	"0.5"	"0.5"	"0.5"	"."	"."	"1"	"1"	"1"	"1"	"."	"."	"0"	"0"	"0"	"0"	"0"	"0"	"0"	"0"	"."	"."	"1"	"1"	"1"	"1"	"1"	"1"	"1"	"1"	"1"	"1"	"1"	"1"	"1"	"1"	"1"	"1"	"1"	"1"	"1"	"1"	"1"	"1"	"1"	"1"	"1"	"1"	"1"	"1"	"1"	"1"	"1"	"1"	"1"	"1"	"1"	"1"	"1"	"1"	"1"	"1"	"1"	"1"	"1"	"1"	"1"	"1"	"1"	"1"	"1"	"1"	"1"	"1"	"1"	"1"	"1"	"1"	"1"	"1"	"1"	"1"	"1"	"1"	"1"	"1"	"1"	"1"	"1"	"1"	"1"	"1"	"1"	"1"	"1"	"1"	"1"	"1"	"1"	"1"	"1"	"1"	"1"	"1"	"1"	"1"	"1"	"1"	"1"	"1"	"1"	"1"	"1"	"1"	"."	"."	"0"	"0"	"0"	"0"	"0"	"0"	"0"	"0"	"0"	""	""	NA	NA	NA	NA	NA	"800"	NA	0	0	3000	600	3000	"sol-ichart-v1-post-gating"	"./"	"V1"	NA	NA	NA	"yes"	"OK"	"child"	41	"deaf"	"shoe"	"none"	"known_sign"	17	"include"	"< 27 Months"	"Kids"	"C_T"	"1"	2	6	800	2	49	1333	3	4	0.835820895522388	TRUE	TRUE	TRUE	"C_T"	"C_T"
"30015"	21	"F"	"sol-vanilla-1"	22	""	"ball2R.pct"	""	"shoe2L.pct"	"l"	"ball2R.pct"	"Vanilla"	"A"	2	600	2132	8000	"0"	"0"	"0"	"0"	"0"	"0"	"0"	"0"	"0"	"0"	"0"	"0"	"0"	"0"	"0"	"0"	"0"	"0"	"."	"."	"1"	"1"	"1"	"1"	"1"	"1"	"1"	"1"	"1"	"1"	"1"	"1"	"1"	"1"	"1"	"1"	"1"	"1"	"1"	"1"	"."	"."	"0"	"0"	"0"	"0"	"0"	"0"	"0"	"0"	"0"	"0"	"0"	"0"	"0"	"0"	"0"	"0"	"0"	"0"	"0"	"0"	"0"	"0"	"0"	"0"	"0"	"0"	"0"	"0"	"0"	"0"	"0"	"0"	"0"	"0"	"0"	"0"	"0"	"0"	"0"	"0"	"0"	"0"	"0"	"0"	"0"	"0"	"0"	"."	"."	"0.5"	"0.5"	"0.5"	"0.5"	"0.5"	"0.5"	"0.5"	"0.5"	"0.5"	"0.5"	"0.5"	"0.5"	"0.5"	"0.5"	"0.5"	"0.5"	"0.5"	"0.5"	"0.5"	"."	"."	"1"	"1"	"1"	"1"	"1"	"1"	"1"	"1"	"1"	"1"	"1"	"1"	"1"	"1"	"1"	"1"	"1"	"1"	"1"	"1"	"1"	"1"	"1"	"1"	"1"	""	""	""	""	""	""	""	""	""	""	NA	NA	NA	NA	NA	"600"	NA	0	0	3000	600	3000	"sol-ichart-v1-post-gating"	"./"	"V1"	NA	NA	NA	"yes"	"OK"	"child"	41	"deaf"	"ball"	"none"	"known_sign"	17	"include"	"< 27 Months"	"Kids"	"off_signer"	"0"	2	6	600	2	47	600	3	20	0.298507462686567	TRUE	TRUE	TRUE	"off_signer"	"off_signer"
"30015"	21	"F"	"sol-vanilla-1"	26	""	"ball3R.pct"	""	"shoe3L.pct"	"r"	"shoe3L.pct"	"Vanilla"	"D"	2	1467	3000	8000	"0.5"	"0.5"	"0.5"	"0.5"	"0.5"	"0.5"	"0.5"	"0.5"	"0.5"	"0.5"	"0.5"	"0.5"	"0.5"	"0.5"	"0.5"	"0.5"	"0.5"	"0.5"	"0.5"	"0.5"	"0.5"	"0.5"	"0.5"	"0.5"	"0.5"	"0.5"	"0.5"	"0.5"	"0.5"	"0.5"	"0.5"	"0.5"	"0.5"	"0.5"	"0.5"	"0.5"	"0.5"	"0.5"	"0.5"	"0.5"	"0.5"	"0.5"	"0.5"	"0.5"	"."	"."	"1"	"1"	"1"	"1"	"1"	"1"	"1"	"1"	"1"	"1"	"1"	"1"	"1"	"1"	"1"	"1"	"1"	"1"	"1"	"1"	"1"	"1"	"1"	"1"	"1"	"1"	"1"	"1"	"1"	"1"	"1"	"1"	"1"	"1"	"1"	"1"	"1"	"1"	"1"	"1"	"1"	"1"	"1"	"1"	"1"	"1"	"1"	"1"	"1"	"1"	"1"	"1"	"1"	"1"	"1"	"."	"."	"0.5"	"0.5"	"0.5"	"0.5"	"0.5"	"0.5"	"0.5"	"0.5"	"0.5"	"0.5"	"0.5"	"0.5"	"0.5"	"0.5"	"0.5"	"0.5"	"0.5"	"0.5"	"0.5"	"0.5"	"0.5"	"0.5"	"0.5"	"0.5"	"0.5"	"0.5"	"0.5"	"0.5"	"0.5"	"0.5"	"0.5"	"0.5"	"0.5"	"0.5"	"0.5"	"0.5"	"."	"."	"."	"."	"."	"."	"."	""	NA	NA	NA	NA	NA	"1467"	NA	0	0	3000	600	3000	"sol-ichart-v1-post-gating"	"./"	"V1"	NA	NA	NA	"yes"	"OK"	"child"	41	"deaf"	"shoe"	"none"	"known_sign"	17	"include"	"< 27 Months"	"Kids"	"C_T"	"1"	2	2	1467	2	45	1467	1	45	0.816901408450704	TRUE	TRUE	TRUE	"C_T"	"C_T"
"30015"	21	"F"	"sol-vanilla-1"	30	""	"shoe1R.pct"	""	"ball1L.pct"	"r"	"ball1L.pct"	"Vanilla"	"A"	2	900	1825	8000	"0"	"0"	"0"	"0"	"0"	"0"	"0"	"0"	"0"	"0"	"0"	"0"	"0"	"0"	"0"	"0"	"0"	"0"	"0"	"0"	"0"	"0"	"0"	"0"	"0"	"0"	"0"	"."	"."	"0.5"	"0.5"	"0.5"	"0.5"	"0.5"	"0.5"	"0.5"	"0.5"	"0.5"	"0.5"	"0.5"	"0.5"	"0.5"	"0.5"	"0.5"	"."	"."	"1"	"1"	"1"	"1"	"1"	"1"	"1"	"1"	"1"	"1"	"1"	"1"	"1"	"1"	"1"	"1"	"1"	"1"	"1"	"1"	"1"	"1"	"1"	"1"	"1"	"1"	"1"	"1"	"1"	"1"	"1"	"1"	"1"	"1"	"1"	"1"	"1"	"1"	"1"	"1"	"1"	"1"	"1"	"1"	"1"	"1"	"1"	"1"	"1"	"1"	"1"	"1"	"1"	""	""	""	""	""	""	""	""	""	""	""	""	""	""	""	""	""	""	""	""	""	""	""	""	""	""	""	""	""	""	""	""	""	""	""	""	""	""	""	""	""	""	""	""	""	""	""	""	NA	NA	NA	NA	NA	"1467"	NA	0	0	3000	600	3000	"sol-ichart-v1-post-gating"	"./"	"V1"	NA	NA	NA	"yes"	"OK"	"child"	41	"deaf"	"ball"	"none"	"known_sign"	17	"include"	"< 27 Months"	"Kids"	"off_signer"	"1"	4	4	1400	4	45	900	1	45	0.760869565217391	TRUE	TRUE	TRUE	"off_signer"	"off_signer"
"30015"	21	"F"	"sol-vanilla-1"	31	""	"teddy3.pct"	""	"doll1L.pct"	"l"	"teddy3.pct"	"Vanilla"	"A"	1	933	1957	8000	"0"	"0"	"0"	"0"	"0"	"0"	"0"	"0"	"0"	"0"	"0"	"0"	"0"	"0"	"0"	"0"	"0"	"0"	"0"	"0"	"0"	"0"	"0"	"0"	"0"	"0"	"0"	"0"	"."	"."	"0.5"	"0.5"	"0.5"	"0.5"	"0.5"	"0.5"	"0.5"	"0.5"	"0.5"	"0.5"	"0.5"	"0.5"	"0.5"	"0.5"	"0.5"	"0.5"	"0.5"	"0.5"	"0.5"	"0.5"	"0.5"	"0.5"	"0.5"	"."	"1"	"1"	"1"	"1"	"1"	"1"	"1"	"1"	"1"	"1"	"1"	"1"	"1"	"1"	"1"	"1"	"1"	"1"	"1"	"1"	"1"	"1"	"1"	"1"	"1"	"1"	"1"	"1"	"1"	"1"	"1"	"1"	"1"	"1"	"1"	"1"	"1"	"1"	"1"	"1"	"1"	"1"	"1"	"1"	"1"	"1"	"1"	"1"	"1"	"1"	"1"	"1"	"1"	"1"	"1"	"1"	"1"	"1"	"1"	"1"	"1"	"1"	"1"	"1"	"1"	"."	"."	"."	"."	"."	"."	"."	"."	"."	""	""	""	""	""	""	""	""	""	""	""	""	""	""	""	""	""	""	""	NA	NA	NA	NA	NA	"1767"	NA	0	0	3000	600	3000	"sol-ichart-v1-post-gating"	"./"	"V1"	NA	NA	NA	"yes"	"OK"	"child"	41	"deaf"	"teddy"	"none"	"known_sign"	17	"include"	"< 27 Months"	"Kids"	"off_signer"	"1"	3	3	1700	3	37	933	1	37	0.692857142857143	TRUE	TRUE	TRUE	"off_signer"	"off_signer"
"30015"	21	"F"	"sol-vanilla-1"	32	""	"birdy4R.pct"	""	"kitty4L.pct"	"l"	"birdy4R.pct"	"Vanilla"	"D"	2	1133	1924	8000	"0.5"	"0.5"	"0.5"	"0.5"	"0.5"	"0.5"	"0.5"	"0.5"	"0.5"	"0.5"	"0.5"	"0.5"	"0.5"	"0.5"	"0.5"	"0.5"	"0.5"	"0.5"	"0.5"	"0.5"	"0.5"	"0.5"	"0.5"	"0.5"	"0.5"	"0.5"	"0.5"	"0.5"	"0.5"	"0.5"	"0.5"	"0.5"	"0.5"	"0.5"	"."	"."	"1"	"1"	"1"	"1"	"1"	"1"	"1"	"1"	"1"	"1"	"1"	"1"	"1"	"."	"."	"0.5"	"0.5"	"0.5"	"0.5"	"0.5"	"0.5"	"0.5"	"0.5"	"0.5"	"0.5"	"0.5"	"0.5"	"0.5"	"0.5"	"0.5"	"0.5"	"0.5"	"0.5"	"0.5"	"0.5"	"0.5"	"0.5"	"0.5"	"0.5"	"0.5"	"0.5"	"0.5"	"0.5"	"0.5"	"0.5"	"0.5"	"0.5"	"0.5"	"."	"1"	"1"	"1"	"1"	"."	"."	"."	"."	"."	"."	""	""	""	""	""	""	""	""	""	""	""	""	""	""	""	""	""	""	""	""	""	""	""	""	""	""	""	""	""	""	""	""	""	""	""	""	""	""	""	""	""	""	""	""	""	""	""	""	""	""	""	""	NA	NA	NA	NA	NA	"1133"	NA	0	0	3000	600	3000	"sol-ichart-v1-post-gating"	"./"	"V1"	NA	NA	NA	"yes"	"OK"	"child"	41	"deaf"	"birdy"	"none"	"known_sign"	17	"include"	"< 27 Months"	"Kids"	"C_T"	"1"	3	7	2733	2	13	1133	3	13	0.628787878787879	TRUE	TRUE	TRUE	"C_T"	"C_T"
"30015"	21	"F"	"sol-vanilla-1"	33	""	"car1R.pct"	""	"book1L.pct"	"r"	"book1L.pct"	"Vanilla"	"D"	2	333	2165	8000	"0.5"	"0.5"	"0.5"	"0.5"	"0.5"	"0.5"	"0.5"	"0.5"	"0.5"	"0.5"	"."	"."	"1"	"1"	"1"	"1"	"1"	"1"	"1"	"1"	"1"	"1"	"1"	"1"	"1"	"1"	"1"	"1"	"1"	"1"	"1"	"1"	"1"	"1"	"1"	"1"	"1"	"1"	"1"	"1"	"1"	"1"	"1"	"1"	"1"	"1"	"1"	"1"	"1"	"1"	"1"	"1"	"1"	"1"	"1"	"1"	"1"	"1"	"1"	"1"	"1"	"1"	"1"	"."	"."	"0.5"	"0.5"	"0.5"	"0.5"	"0.5"	"0.5"	"0.5"	"0.5"	"0.5"	"0.5"	"0.5"	"0.5"	"0.5"	"0.5"	"0.5"	"0.5"	"0.5"	"0.5"	"0.5"	"0.5"	"0.5"	"0.5"	"0.5"	"."	"."	"1"	"1"	"1"	"1"	"1"	"1"	"1"	"1"	"1"	"1"	"1"	"1"	"1"	"1"	"1"	"1"	"1"	"1"	"1"	"1"	"1"	"1"	"1"	"1"	"1"	"1"	"1"	"1"	"1"	"1"	"1"	""	""	""	""	""	""	""	""	""	""	""	""	""	""	""	""	""	""	""	""	""	""	""	""	""	""	NA	NA	NA	NA	NA	"333"	NA	0	0	3000	600	3000	"sol-ichart-v1-post-gating"	"./"	"V1"	NA	NA	NA	"yes"	"OK"	"child"	41	"deaf"	"book"	"none"	"known_sign"	17	"include"	"< 27 Months"	"Kids"	"C_T"	"1"	4	6	2867	2	51	333	2	51	0.833333333333333	TRUE	FALSE	TRUE	"no_shift"	"no_shift"
"30018"	18	"M"	"sol-vanilla-1"	2	""	"doll1R.pct"	""	"teddy1R.pct"	"l"	"doll1R.pct"	"Vanilla"	"D"	5	1133	1891	8000	"0.5"	"0.5"	"0.5"	"0.5"	"0.5"	"0.5"	"0.5"	"0.5"	"0.5"	"0.5"	"0.5"	"0.5"	"0.5"	"0.5"	"0.5"	"0.5"	"0.5"	"0.5"	"0.5"	"0.5"	"0.5"	"0.5"	"0.5"	"0.5"	"0.5"	"0.5"	"0.5"	"0.5"	"0.5"	"0.5"	"0.5"	"0.5"	"0.5"	"0.5"	"."	"."	"."	"."	"."	"0"	"0"	"0"	"0"	"0"	"0"	"0"	"0"	"0"	"0"	"0"	"0"	"0"	"0"	"0"	"0"	"0"	"0"	"0"	"0"	"0"	"0"	"0"	"0"	"0"	"."	"."	"1"	"1"	"1"	"1"	"1"	"1"	"1"	"1"	"1"	"1"	"1"	"1"	"1"	"1"	"1"	"1"	"1"	"1"	"1"	"1"	"1"	"1"	"1"	"1"	"1"	"1"	"1"	"1"	"1"	"1"	"1"	"1"	"."	"."	"0.5"	"0.5"	"0.5"	"0.5"	"0.5"	"0.5"	"0.5"	"0.5"	"0.5"	"."	"."	"0"	"0"	"0"	"0"	"0"	"0"	"0"	""	""	""	""	""	""	""	""	""	""	""	""	""	""	""	""	""	""	""	""	""	""	""	""	""	""	""	""	""	NA	NA	NA	NA	NA	"1133"	NA	0	0	3000	600	3000	"sol-ichart-v1-post-gating"	"./"	"V1"	NA	NA	NA	"yes"	"OK"	"child"	41	"hearing"	"doll"	"none"	"known_sign"	29	"include"	"< 27 Months"	"Kids"	"C_D"	"0"	5	7	1133	5	25	2133	2	25	0.5	TRUE	TRUE	TRUE	"C_D"	"C_D"
"30018"	18	"M"	"sol-vanilla-1"	4	""	"ball1R.pct"	""	"shoe1L.pct"	"l"	"ball1R.pct"	"Vanilla"	"D"	2	1300	2132	8000	"0.5"	"0.5"	"0.5"	"0.5"	"0.5"	"0.5"	"0.5"	"0.5"	"0.5"	"0.5"	"0.5"	"0.5"	"0.5"	"0.5"	"0.5"	"0.5"	"0.5"	"0.5"	"0.5"	"0.5"	"0.5"	"0.5"	"0.5"	"0.5"	"0.5"	"0.5"	"0.5"	"0.5"	"0.5"	"0.5"	"0.5"	"0.5"	"0.5"	"0.5"	"0.5"	"0.5"	"0.5"	"0.5"	"0.5"	"."	"."	"1"	"1"	"1"	"1"	"1"	"1"	"1"	"1"	"1"	"1"	"1"	"1"	"1"	"1"	"1"	"1"	"."	"."	"0"	"0"	"0"	"0"	"0"	"0"	"0"	"0"	"0"	"0"	"0"	"0"	"0"	"0"	"0"	"0"	"0"	"0"	"0"	"0"	"0"	"0"	"0"	"0"	"."	"."	"0.5"	"0.5"	"0.5"	"0.5"	"0.5"	"0.5"	"0.5"	"0.5"	"0.5"	"0.5"	"0.5"	"0.5"	"0.5"	"0.5"	"0.5"	"0.5"	"0.5"	"0.5"	"0.5"	"0.5"	"0.5"	"0.5"	"0.5"	"0.5"	"0.5"	"0.5"	"0.5"	"0.5"	"0.5"	"0.5"	"0.5"	"0.5"	"0.5"	"0.5"	"0.5"	"0.5"	"0.5"	"0.5"	"0.5"	"0.5"	"0.5"	"0.5"	"0.5"	"0.5"	"0.5"	"0.5"	"0.5"	"0.5"	"0.5"	"0.5"	"0.5"	""	""	""	""	""	""	""	""	""	""	""	NA	NA	NA	NA	NA	"1300"	NA	0	0	3000	600	3000	"sol-ichart-v1-post-gating"	"./"	"V1"	NA	NA	NA	"yes"	"OK"	"child"	41	"hearing"	"ball"	"none"	"known_sign"	29	"include"	"< 27 Months"	"Kids"	"C_T"	"0"	2	6	1300	2	24	1300	3	16	0.440298507462687	TRUE	TRUE	TRUE	"C_T"	"C_T"
"30018"	18	"M"	"sol-vanilla-1"	5	""	"doll2R.pct"	""	"teddy3.pct"	"r"	"teddy3.pct"	"Vanilla"	"D"	5	967	1957	8000	"0.5"	"0.5"	"0.5"	"0.5"	"0.5"	"0.5"	"0.5"	"0.5"	"0.5"	"0.5"	"0.5"	"0.5"	"0.5"	"0.5"	"0.5"	"0.5"	"0.5"	"0.5"	"0.5"	"0.5"	"0.5"	"0.5"	"0.5"	"0.5"	"0.5"	"0.5"	"0.5"	"0.5"	"0.5"	"."	"."	"."	"."	"."	"0"	"0"	"0"	"0"	"0"	"0"	"0"	"0"	"0"	"0"	"0"	"0"	"0"	"0"	"0"	"0"	"0"	"0"	"0"	"."	"."	"."	"1"	"1"	"1"	"1"	"1"	"1"	"1"	"1"	"1"	"1"	"1"	"1"	"1"	"1"	"1"	"1"	"1"	"1"	"1"	"1"	"1"	"1"	"1"	"1"	"1"	"1"	"1"	"1"	"1"	"1"	"1"	"1"	"."	"."	"0.5"	"0.5"	"0.5"	"0.5"	"0.5"	"0.5"	"0.5"	"0.5"	"0.5"	"0.5"	"0.5"	"0.5"	"0.5"	"0.5"	"0.5"	"0.5"	"0.5"	"0.5"	"0.5"	"0.5"	"0.5"	"0.5"	"0.5"	"0.5"	"0.5"	"0.5"	"0.5"	"0.5"	"0.5"	"0.5"	"0.5"	"0.5"	"0.5"	"0.5"	"0.5"	"0.5"	"0.5"	""	""	""	""	""	""	""	""	""	""	""	""	""	""	""	""	""	""	""	""	NA	NA	NA	NA	NA	"967"	NA	0	0	3000	600	3000	"sol-ichart-v1-post-gating"	"./"	"V1"	NA	NA	NA	"yes"	"OK"	"child"	41	"hearing"	"teddy"	"none"	"known_sign"	29	"include"	"< 27 Months"	"Kids"	"C_D"	"1"	5	10	967	5	32	1767	3	19	0.603174603174603	TRUE	TRUE	TRUE	"C_D"	"C_D"
