"Sub.Num"	"Months"	"Sex"	"Order"	"Tr.Num"	"Prescreen.Notes"	"L.image"	"C.Image"	"R.image"	"Target.Side"	"Target.Image"	"Condition"	"Response"	"First.Shift.Gap"	"RT"	"CritOnSet"	"CritOffSet"	"0"	"33"	"67"	"100"	"133"	"167"	"200"	"233"	"267"	"300"	"333"	"367"	"400"	"433"	"467"	"500"	"533"	"567"	"600"	"633"	"667"	"700"	"733"	"767"	"800"	"833"	"867"	"900"	"933"	"967"	"1000"	"1033"	"1067"	"1100"	"1133"	"1167"	"1200"	"1233"	"1267"	"1300"	"1333"	"1367"	"1400"	"1433"	"1467"	"1500"	"1533"	"1567"	"1600"	"1633"	"1667"	"1700"	"1733"	"1767"	"1800"	"1833"	"1867"	"1900"	"1933"	"1967"	"2000"	"2033"	"2067"	"2100"	"2133"	"2167"	"2200"	"2233"	"2267"	"2300"	"2333"	"2367"	"2400"	"2433"	"2467"	"2500"	"2533"	"2567"	"2600"	"2633"	"2667"	"2700"	"2733"	"2767"	"2800"	"2833"	"2867"	"2900"	"2933"	"2967"	"3000"	"3033"	"3067"	"3100"	"3133"	"3167"	"3200"	"3233"	"3267"	"3300"	"3333"	"3367"	"3400"	"3433"	"3467"	"3500"	"3533"	"3567"	"3600"	"3633"	"3667"	"3700"	"3733"	"3767"	"3800"	"3833"	"3867"	"3900"	"3933"	"3967"	"4000"	"4033"	"4067"	"4100"	"4133"	"4167"	"4200"	"4233"	"4267"	"4300"	"4333"	"4367"	"4400"	"4433"	"4467"	"4500"	"4533"	"4567"	"4600"	"4633"	"4667"	"4700"	"4733"	"4767"	"4800"	"4833"	"4867"	"4900"	"4933"	"4967"	"5000"	"5033"	"5067"	"Block"	"Offset"	"StartWindowRT"	"EndWindowRT"	"StartWindowAcc"	"EndWindowAcc"	"StudyName"	"Directory"	"stimuli"	"include"	"reason_excluded"	"age_code"	"signs_produced"	"clean_target_img"	"parent_report_unknown_signs"	"unknown_trial"	"good_trials"	"exclude_few_trials"	"age_group"	"trial_types"	"longestLook"	"longestGap"	"Gap"	"longestGapPosition"	"firstGap"	"durationLongestLook"	"StartlongestLook_T"	"NumberOfShifts"	"FirstFixation"	"Accuracy"	"GoodFirstGap"	"GoodRT"	"GoodLongestGap"
"30004"	349	"F"	"sol-inc-1"	2	""	"teddy1.pct"	""	"doll1L.jpg"	"r"	"doll1L.jpg"	"Vanilla"	"D"	2	1633	2066	6000	"0.5"	"0.5"	"0.5"	"0.5"	"0.5"	"0.5"	"0.5"	"0.5"	"0.5"	"0.5"	"0.5"	"0.5"	"0.5"	"0.5"	"0.5"	"0.5"	"0.5"	"0.5"	"0.5"	"0.5"	"0.5"	"0.5"	"0.5"	"0.5"	"0.5"	"0.5"	"0.5"	"0.5"	"0.5"	"0.5"	"0.5"	"0.5"	"0.5"	"0.5"	"0.5"	"0.5"	"0.5"	"0.5"	"0.5"	"0.5"	"0.5"	"0.5"	"0.5"	"0.5"	"0.5"	"0.5"	"0.5"	"0.5"	"0.5"	"."	"."	"1"	"1"	"1"	"1"	"1"	"1"	"1"	"1"	"1"	"1"	"1"	"1"	"1"	"1"	"1"	"1"	"1"	"1"	"1"	"1"	"1"	"1"	"1"	"1"	"1"	"1"	"1"	"1"	"1"	"1"	"1"	"1"	"1"	"1"	"1"	"1"	"."	"0.5"	"0.5"	"0.5"	"0.5"	"0.5"	"0.5"	"0.5"	"0.5"	"0.5"	"0.5"	"0.5"	"0.5"	"0.5"	"0.5"	"0.5"	"0.5"	"0.5"	"0.5"	"0.5"	"0.5"	"0.5"	"0.5"	"0.5"	""	""	""	""	""	""	""	""	""	""	""	""	""	""	""	""	""	""	""	""	""	""	""	""	""	""	""	""	""	""	""	""	""	""	""	""	NA	NA	NA	NA	NA	1633	NA	0	0	2500	0	2500	"sol-ichart-v1-processed"	"./"	"V1"	"yes"	NA	"adult"	NA	"doll"	NA	"known_sign"	40	"include"	"Adults"	"C_T"	"1"	2	2	1633	2	25	1633	1	25	0.668918918918919	TRUE	TRUE	TRUE
"30004"	349	"F"	"sol-inc-1"	3	""	"bluecup.pct"	""	"redsockL.pct"	"r"	"redsockL.pct"	"Vanilla"	"D"	1	1167	3165	6000	"0.5"	"0.5"	"0.5"	"0.5"	"0.5"	"0.5"	"0.5"	"0.5"	"0.5"	"0.5"	"0.5"	"0.5"	"0.5"	"0.5"	"0.5"	"0.5"	"0.5"	"0.5"	"0.5"	"0.5"	"0.5"	"0.5"	"0.5"	"0.5"	"0.5"	"0.5"	"0.5"	"0.5"	"0.5"	"0.5"	"0.5"	"0.5"	"0.5"	"0.5"	"0.5"	"."	"1"	"1"	"1"	"1"	"1"	"1"	"1"	"1"	"1"	"1"	"1"	"1"	"1"	"1"	"1"	"1"	"1"	"1"	"1"	"1"	"1"	"1"	"1"	"1"	"1"	"1"	"1"	"1"	"1"	"1"	"1"	"1"	"1"	"1"	"1"	"1"	"1"	"1"	"1"	"."	"."	"0.5"	"0.5"	"0.5"	"0.5"	"0.5"	"0.5"	"0.5"	"0.5"	"0.5"	"0.5"	"0.5"	"0.5"	"0.5"	"0.5"	"0.5"	"0.5"	"0.5"	"0.5"	"0.5"	"0.5"	"0.5"	"0.5"	"0.5"	"0.5"	"0.5"	"0.5"	"0.5"	"0.5"	"0.5"	"0.5"	"0.5"	"0.5"	"0.5"	"0.5"	"0.5"	"0.5"	"0.5"	""	""	""	""	""	""	""	""	""	""	""	""	""	""	""	""	""	""	""	""	""	""	""	""	""	""	""	""	""	""	""	""	""	NA	NA	NA	NA	NA	1167	NA	0	0	2500	0	2500	"sol-ichart-v1-processed"	"./"	"V1"	"yes"	NA	"adult"	NA	"sock"	NA	"known_sign"	40	"include"	"Adults"	"C_T"	"1"	1	2	1167	1	39	1167	2	39	0.763513513513513	TRUE	TRUE	TRUE
"30004"	349	"F"	"sol-inc-1"	4	""	"juice1.pct"	""	"cookie1.pct"	"l"	"juice1.pct"	"Vanilla"	"D"	2	700	2165	6000	"0.5"	"0.5"	"0.5"	"0.5"	"0.5"	"0.5"	"0.5"	"0.5"	"0.5"	"0.5"	"0.5"	"0.5"	"0.5"	"0.5"	"0.5"	"0.5"	"0.5"	"0.5"	"0.5"	"0.5"	"0.5"	"."	"."	"1"	"1"	"1"	"1"	"1"	"1"	"1"	"1"	"1"	"1"	"1"	"1"	"1"	"1"	"1"	"1"	"1"	"1"	"1"	"1"	"1"	"1"	"1"	"1"	"1"	"1"	"1"	"1"	"1"	"1"	"1"	"1"	"1"	"1"	"1"	"1"	"1"	"1"	"1"	"1"	"1"	"1"	"1"	"1"	"1"	"1"	"."	"."	"0.5"	"0.5"	"0.5"	"0.5"	"0.5"	"0.5"	"0.5"	"0.5"	"0.5"	"0.5"	"0.5"	"0.5"	"0.5"	"0.5"	"0.5"	"0.5"	"0.5"	"0.5"	"0.5"	"0.5"	"0.5"	"0.5"	"0.5"	"0.5"	"0.5"	"0.5"	"0.5"	"0.5"	"0.5"	"0.5"	"0.5"	"0.5"	"0.5"	"0.5"	"0.5"	"0.5"	"0.5"	"0.5"	"0.5"	""	""	""	""	""	""	""	""	""	""	""	""	""	""	""	""	""	""	""	""	""	""	""	""	""	""	""	""	""	""	""	""	""	""	""	""	""	NA	NA	NA	NA	NA	700	NA	0	0	2500	0	2500	"sol-ichart-v1-processed"	"./"	"V1"	"yes"	NA	"adult"	NA	"juice"	NA	"known_sign"	40	"include"	"Adults"	"C_T"	"1"	2	4	700	2	46	700	2	46	0.819444444444444	TRUE	TRUE	TRUE
"30004"	349	"F"	"sol-inc-1"	5	""	"cookie2.pct"	""	"juice2.pct"	"l"	"cookie2.pct"	"Vanilla"	"D"	5	833	2330	6000	"0.5"	"0.5"	"0.5"	"0.5"	"0.5"	"0.5"	"0.5"	"0.5"	"0.5"	"0.5"	"0.5"	"0.5"	"0.5"	"0.5"	"0.5"	"0.5"	"0.5"	"0.5"	"0.5"	"0.5"	"0.5"	"0.5"	"0.5"	"0.5"	"0.5"	"."	"."	"."	"."	"."	"1"	"1"	"1"	"1"	"1"	"1"	"1"	"1"	"1"	"1"	"1"	"1"	"1"	"1"	"1"	"1"	"1"	"1"	"1"	"1"	"1"	"1"	"1"	"1"	"1"	"1"	"1"	"1"	"1"	"."	"."	"."	"0.5"	"0.5"	"0.5"	"0.5"	"0.5"	"0.5"	"0.5"	"0.5"	"0.5"	"0.5"	"0.5"	"0.5"	"0.5"	"0.5"	"0.5"	"0.5"	"0.5"	"0.5"	"0.5"	"0.5"	"0.5"	"0.5"	"0.5"	"0.5"	"0.5"	"0.5"	"0.5"	"0.5"	"0.5"	"0.5"	"0.5"	"0.5"	"0.5"	"0.5"	"0.5"	"0.5"	"0.5"	"0.5"	"0.5"	"0.5"	"0.5"	"0.5"	"0.5"	"0.5"	"0.5"	"0.5"	"0.5"	"0.5"	"0.5"	"0.5"	"0.5"	"0.5"	"0.5"	"0.5"	"0.5"	""	""	""	""	""	""	""	""	""	""	""	""	""	""	""	""	""	""	""	""	""	""	""	""	""	""	""	""	""	""	NA	NA	NA	NA	NA	833	NA	0	0	2500	0	2500	"sol-ichart-v1-processed"	"./"	"V1"	"yes"	NA	"adult"	NA	"cookie"	NA	"known_sign"	40	"include"	"Adults"	"C_T"	"1"	5	8	833	5	29	833	2	29	0.713235294117647	TRUE	TRUE	TRUE
"30004"	349	"F"	"sol-inc-1"	6	""	"redsockR.pct"	""	"redcup.pct"	"r"	"redcup.pct"	"Vanilla"	"D"	4	967	3594	6000	"0.5"	"0.5"	"0.5"	"0.5"	"0.5"	"0.5"	"0.5"	"0.5"	"0.5"	"0.5"	"0.5"	"0.5"	"0.5"	"0.5"	"0.5"	"0.5"	"0.5"	"0.5"	"0.5"	"0.5"	"0.5"	"0.5"	"0.5"	"0.5"	"0.5"	"0.5"	"0.5"	"0.5"	"0.5"	"."	"."	"."	"."	"1"	"1"	"1"	"1"	"1"	"1"	"1"	"1"	"1"	"1"	"1"	"1"	"1"	"1"	"1"	"1"	"1"	"1"	"1"	"1"	"1"	"1"	"1"	"1"	"1"	"1"	"1"	"1"	"1"	"1"	"1"	"1"	"."	"."	"."	"."	"."	"."	"0.5"	"0.5"	"0.5"	"0.5"	"0.5"	"0.5"	"0.5"	"0.5"	"0.5"	"0.5"	"0.5"	"0.5"	"0.5"	"0.5"	"0.5"	"0.5"	"0.5"	"0.5"	"0.5"	"0.5"	"0.5"	"0.5"	"0.5"	"0.5"	"0.5"	"0.5"	"0.5"	"0.5"	"0.5"	"0.5"	"0.5"	"0.5"	"0.5"	"0.5"	"0.5"	"0.5"	"0.5"	"0.5"	"0.5"	"0.5"	"0.5"	"0.5"	"0.5"	"0.5"	"0.5"	"0.5"	"0.5"	"0.5"	"0.5"	"0.5"	"0.5"	"0.5"	"0.5"	"0.5"	"0.5"	"0.5"	"0.5"	"0.5"	"0.5"	"0.5"	"0.5"	"0.5"	"0.5"	"0.5"	"0.5"	"0.5"	"0.5"	"0.5"	"0.5"	"0.5"	"0.5"	"0.5"	"0.5"	"0.5"	"0.5"	"0.5"	"0.5"	NA	NA	NA	NA	967	NA	0	0	2500	0	2500	"sol-ichart-v1-processed"	"./"	"V1"	"yes"	NA	"adult"	NA	"cup"	NA	"known_sign"	40	"include"	"Adults"	"C_T"	"1"	6	10	2167	4	32	967	2	32	0.742424242424242	TRUE	TRUE	TRUE
"30004"	349	"F"	"sol-inc-1"	7	""	"cookie2.pct"	""	"juice2.pct"	"l"	"cookie2.pct"	"Vanilla"	"D"	5	700	2429	6000	"0.5"	"0.5"	"0.5"	"0.5"	"0.5"	"0.5"	"0.5"	"0.5"	"0.5"	"0.5"	"0.5"	"0.5"	"0.5"	"0.5"	"0.5"	"0.5"	"0.5"	"0.5"	"0.5"	"0.5"	"0.5"	"."	"."	"."	"."	"."	"1"	"1"	"1"	"1"	"1"	"1"	"1"	"1"	"1"	"1"	"1"	"1"	"1"	"1"	"1"	"1"	"1"	"1"	"1"	"1"	"1"	"1"	"1"	"1"	"1"	"1"	"1"	"1"	"1"	"1"	"1"	"1"	"1"	"1"	"1"	"1"	"1"	"1"	"1"	"1"	"1"	"."	"."	"."	"0.5"	"0.5"	"0.5"	"0.5"	"0.5"	"0.5"	"0.5"	"0.5"	"0.5"	"0.5"	"0.5"	"0.5"	"0.5"	"0.5"	"0.5"	"0.5"	"0.5"	"0.5"	"0.5"	"0.5"	"0.5"	"0.5"	"0.5"	"0.5"	"0.5"	"0.5"	"0.5"	"0.5"	"0.5"	"0.5"	"0.5"	"0.5"	"0.5"	"0.5"	"0.5"	"0.5"	"0.5"	"0.5"	"0.5"	"0.5"	"0.5"	"0.5"	"0.5"	"0.5"	""	""	""	""	""	""	""	""	""	""	""	""	""	""	""	""	""	""	""	""	""	""	""	""	""	""	""	""	""	""	""	""	""	NA	NA	NA	NA	NA	700	NA	0	0	2500	0	2500	"sol-ichart-v1-processed"	"./"	"V1"	"yes"	NA	"adult"	NA	"cookie"	NA	"known_sign"	40	"include"	"Adults"	"C_T"	"1"	5	8	700	5	41	700	2	41	0.801470588235294	TRUE	TRUE	TRUE
"30004"	349	"F"	"sol-inc-1"	8	""	"blueball.jpg"	""	"blueshoeL.pct"	"l"	"blueball.jpg"	"Vanilla"	"D"	2	233	3066	6000	"0.5"	"0.5"	"0.5"	"0.5"	"0.5"	"0.5"	"0.5"	"."	"."	"1"	"1"	"1"	"1"	"1"	"1"	"1"	"1"	"1"	"1"	"1"	"1"	"1"	"1"	"1"	"1"	"1"	"1"	"1"	"1"	"1"	"1"	"1"	"1"	"1"	"1"	"1"	"1"	"1"	"1"	"1"	"1"	"1"	"1"	"1"	"."	"."	"."	"."	"0.5"	"0.5"	"0.5"	"0.5"	"0.5"	"0.5"	"0.5"	"0.5"	"0.5"	"0.5"	"0.5"	"0.5"	"0.5"	"0.5"	"0.5"	"0.5"	"0.5"	"0.5"	"0.5"	"0.5"	"0.5"	"0.5"	"0.5"	"0.5"	"0.5"	"0.5"	"0.5"	"0.5"	"0.5"	"0.5"	"0.5"	"0.5"	"0.5"	"0.5"	"0.5"	"0.5"	"0.5"	"0.5"	"0.5"	"0.5"	"0.5"	"0.5"	"0.5"	"0.5"	"0.5"	"0.5"	"0.5"	"0.5"	"0.5"	"0.5"	"0.5"	"0.5"	"0.5"	"0.5"	"0.5"	"0.5"	"0.5"	"0.5"	"0.5"	"0.5"	"0.5"	"0.5"	"0.5"	"0.5"	"0.5"	"0.5"	"0.5"	"0.5"	"0.5"	"0.5"	""	""	""	""	""	""	""	""	""	""	""	""	""	""	""	""	""	""	""	""	""	""	""	""	""	""	""	""	""	NA	NA	NA	NA	NA	233	NA	0	0	2500	0	2500	"sol-ichart-v1-processed"	"./"	"V1"	"yes"	NA	"adult"	NA	"ball"	NA	"known_sign"	40	"include"	"Adults"	"C_T"	"1"	4	6	1467	2	35	233	2	35	0.75	TRUE	FALSE	TRUE
"30004"	349	"F"	"sol-inc-1"	9	""	"kitty2R.pct"	""	"birdy1L.pct"	"r"	"birdy1L.pct"	"Vanilla"	"D"	5	933	2000	6000	"0.5"	"0.5"	"0.5"	"0.5"	"0.5"	"0.5"	"0.5"	"0.5"	"0.5"	"0.5"	"0.5"	"0.5"	"0.5"	"0.5"	"0.5"	"0.5"	"0.5"	"0.5"	"0.5"	"0.5"	"0.5"	"0.5"	"0.5"	"0.5"	"0.5"	"0.5"	"0.5"	"0.5"	"."	"."	"."	"."	"."	"1"	"1"	"1"	"1"	"1"	"1"	"1"	"1"	"1"	"1"	"1"	"1"	"1"	"1"	"1"	"1"	"1"	"1"	"1"	"1"	"1"	"1"	"1"	"."	"."	"0.5"	"0.5"	"0.5"	"0.5"	"0.5"	"0.5"	"0.5"	"0.5"	"0.5"	"0.5"	"0.5"	"0.5"	"0.5"	"0.5"	"0.5"	"0.5"	"0.5"	"0.5"	"0.5"	"0.5"	"0.5"	"0.5"	"0.5"	"0.5"	"0.5"	"0.5"	"0.5"	"0.5"	"0.5"	"0.5"	"0.5"	"0.5"	"0.5"	"0.5"	"0.5"	"0.5"	"0.5"	"0.5"	""	""	""	""	""	""	""	""	""	""	""	""	""	""	""	""	""	""	""	""	""	""	""	""	""	""	""	""	""	""	""	""	""	""	""	""	""	""	""	""	""	""	""	""	""	""	""	""	""	""	""	NA	NA	NA	NA	NA	933	NA	0	0	2500	0	2500	"sol-ichart-v1-processed"	"./"	"V1"	"yes"	NA	"adult"	NA	"birdy"	NA	"known_sign"	40	"include"	"Adults"	"C_T"	"1"	5	7	933	5	23	933	2	23	0.666666666666667	TRUE	TRUE	TRUE
"30004"	349	"F"	"sol-inc-1"	10	""	"bluesockR.pct"	""	"redcup.pct"	"l"	"bluesockR.pct"	"Vanilla"	"D"	4	1800	3561	6000	"0.5"	"0.5"	"0.5"	"0.5"	"0.5"	"0.5"	"0.5"	"0.5"	"0.5"	"0.5"	"0.5"	"0.5"	"0.5"	"0.5"	"0.5"	"0.5"	"0.5"	"0.5"	"0.5"	"0.5"	"0.5"	"0.5"	"0.5"	"0.5"	"0.5"	"0.5"	"0.5"	"0.5"	"0.5"	"0.5"	"0.5"	"0.5"	"0.5"	"0.5"	"0.5"	"0.5"	"0.5"	"0.5"	"0.5"	"0.5"	"0.5"	"0.5"	"0.5"	"0.5"	"0.5"	"0.5"	"0.5"	"0.5"	"0.5"	"0.5"	"0.5"	"0.5"	"0.5"	"0.5"	"."	"."	"."	"."	"1"	"1"	"1"	"1"	"1"	"1"	"1"	"1"	"1"	"1"	"1"	"1"	"1"	"1"	"1"	"1"	"1"	"1"	"1"	"1"	"1"	"1"	"1"	"1"	"1"	"1"	"1"	"1"	"1"	"1"	"1"	"."	"."	"0.5"	"0.5"	"0.5"	"0.5"	"0.5"	"0.5"	"0.5"	"0.5"	"0.5"	"0.5"	"0.5"	"0.5"	"0.5"	"0.5"	"0.5"	"0.5"	"0.5"	"0.5"	"0.5"	"0.5"	"0.5"	"0.5"	"0.5"	"0.5"	"0.5"	"0.5"	"0.5"	"0.5"	"0.5"	"0.5"	"0.5"	"0.5"	"0.5"	""	""	""	""	""	""	""	""	""	""	""	""	""	""	""	""	""	""	""	""	""	""	""	NA	NA	NA	NA	NA	1800	NA	0	0	2500	0	2500	"sol-ichart-v1-processed"	"./"	"V1"	"yes"	NA	"adult"	NA	"sock"	NA	"known_sign"	40	"include"	"Adults"	"C_T"	"1"	4	4	1800	4	18	1800	1	18	0.625	TRUE	TRUE	TRUE
"30004"	349	"F"	"sol-inc-1"	11	""	"cookie3.pct"	""	"juice3.pct"	"r"	"juice3.pct"	"Vanilla"	"D"	2	967	2330	6000	"0.5"	"0.5"	"0.5"	"0.5"	"0.5"	"0.5"	"0.5"	"0.5"	"0.5"	"0.5"	"0.5"	"0.5"	"0.5"	"0.5"	"0.5"	"0.5"	"0.5"	"0.5"	"0.5"	"0.5"	"0.5"	"0.5"	"0.5"	"0.5"	"0.5"	"0.5"	"0.5"	"0.5"	"0.5"	"."	"."	"1"	"1"	"1"	"1"	"1"	"1"	"1"	"1"	"1"	"1"	"1"	"1"	"1"	"1"	"1"	"1"	"1"	"1"	"1"	"1"	"1"	"1"	"1"	"1"	"1"	"1"	"1"	"1"	"1"	"1"	"1"	"1"	"1"	"1"	"1"	"1"	"1"	"1"	"1"	"1"	"1"	"1"	"1"	"1"	"1"	"1"	"1"	"1"	"1"	"1"	"1"	"1"	"1"	"1"	"1"	"1"	"1"	"1"	"1"	"1"	"1"	"1"	"1"	"1"	"1"	"1"	""	""	""	""	""	""	""	""	""	""	""	""	""	""	""	""	""	""	""	""	""	""	""	""	""	""	""	""	""	""	""	""	""	""	""	""	""	""	""	""	""	""	""	""	""	""	""	""	""	""	NA	NA	NA	NA	NA	967	NA	0	0	2500	0	2500	"sol-ichart-v1-processed"	"./"	"V1"	"yes"	NA	"adult"	NA	"juice"	NA	"known_sign"	40	"include"	"Adults"	"C_T"	"1"	2	2	967	2	45	967	1	45	0.804054054054054	TRUE	TRUE	TRUE
"30004"	349	"F"	"sol-inc-1"	12	""	"redball.pct"	""	"blueshoeL.pct"	"l"	"redball.pct"	"Vanilla"	"D"	4	1033	3033	6000	"0.5"	"0.5"	"0.5"	"0.5"	"0.5"	"0.5"	"0.5"	"0.5"	"0.5"	"0.5"	"0.5"	"0.5"	"0.5"	"0.5"	"0.5"	"0.5"	"0.5"	"0.5"	"0.5"	"0.5"	"0.5"	"0.5"	"0.5"	"0.5"	"0.5"	"0.5"	"0.5"	"0.5"	"0.5"	"0.5"	"0.5"	"."	"."	"."	"."	"1"	"1"	"1"	"1"	"1"	"1"	"1"	"1"	"1"	"1"	"1"	"1"	"1"	"1"	"1"	"1"	"1"	"1"	"1"	"1"	"1"	"1"	"1"	"1"	"1"	"1"	"1"	"1"	"1"	"1"	"1"	"1"	"1"	"1"	"1"	"1"	"1"	"1"	"1"	"1"	"1"	"1"	"."	"."	"0.5"	"0.5"	"0.5"	"0.5"	"0.5"	"0.5"	"0.5"	"0.5"	"0.5"	"0.5"	"0.5"	"0.5"	"0.5"	"0.5"	"0.5"	"0.5"	"0.5"	"0.5"	"0.5"	"0.5"	"0.5"	"0.5"	"0.5"	"0.5"	"0.5"	"0.5"	"0.5"	"0.5"	"0.5"	"0.5"	"0.5"	"0.5"	"0.5"	"0.5"	"0.5"	"0.5"	"0.5"	"0.5"	"0.5"	"0.5"	"0.5"	"0.5"	"0.5"	"0.5"	"0.5"	"0.5"	"0.5"	"0.5"	"0.5"	"0.5"	"0.5"	"0.5"	"0.5"	"0.5"	""	""	""	""	""	""	""	""	""	""	""	""	""	""	NA	NA	NA	NA	NA	1033	NA	0	0	2500	0	2500	"sol-ichart-v1-processed"	"./"	"V1"	"yes"	NA	"adult"	NA	"ball"	NA	"known_sign"	40	"include"	"Adults"	"C_T"	"1"	4	4	1033	4	41	1033	1	41	0.784722222222222	TRUE	TRUE	TRUE
"30004"	349	"F"	"sol-inc-1"	13	""	"cookie1.pct"	""	"juice1.pct"	"l"	"cookie1.pct"	"Vanilla"	"D"	2	933	2330	6000	"0.5"	"0.5"	"0.5"	"0.5"	"0.5"	"0.5"	"0.5"	"0.5"	"0.5"	"0.5"	"0.5"	"0.5"	"0.5"	"0.5"	"0.5"	"0.5"	"0.5"	"0.5"	"0.5"	"0.5"	"0.5"	"0.5"	"0.5"	"0.5"	"0.5"	"0.5"	"0.5"	"0.5"	"."	"."	"1"	"1"	"1"	"1"	"1"	"1"	"1"	"1"	"1"	"1"	"1"	"1"	"1"	"1"	"1"	"1"	"1"	"1"	"1"	"1"	"1"	"1"	"1"	"1"	"1"	"1"	"1"	"1"	"1"	"1"	"1"	"1"	"1"	"1"	"1"	"1"	"1"	"."	"."	"."	"0.5"	"0.5"	"0.5"	"0.5"	"0.5"	"0.5"	"0.5"	"0.5"	"0.5"	"0.5"	"0.5"	"0.5"	"0.5"	"0.5"	"0.5"	"0.5"	"0.5"	"."	"."	"1"	"1"	"1"	"1"	"1"	"1"	"1"	"1"	"1"	"1"	"1"	"1"	"1"	"1"	"1"	"1"	"1"	"1"	"1"	"1"	"1"	"1"	"1"	"1"	"1"	"1"	"1"	"1"	"1"	"1"	"1"	"."	"."	"."	"."	"."	""	""	""	""	""	""	""	""	""	""	""	""	""	""	""	""	""	""	""	""	""	""	NA	NA	NA	NA	NA	933	NA	0	0	2500	0	2500	"sol-ichart-v1-processed"	"./"	"V1"	"yes"	NA	"adult"	NA	"cookie"	NA	"known_sign"	40	"include"	"Adults"	"C_T"	"1"	3	5	2233	2	37	933	2	37	0.76056338028169	TRUE	TRUE	TRUE
"30004"	349	"F"	"sol-inc-1"	14	""	"cookie1.pct"	""	"juice1.pct"	"r"	"juice1.pct"	"Vanilla"	"D"	4	933	2165	6000	"0.5"	"0.5"	"0.5"	"0.5"	"0.5"	"0.5"	"0.5"	"0.5"	"0.5"	"0.5"	"0.5"	"0.5"	"0.5"	"0.5"	"0.5"	"0.5"	"0.5"	"0.5"	"0.5"	"0.5"	"0.5"	"0.5"	"0.5"	"0.5"	"0.5"	"0.5"	"0.5"	"0.5"	"."	"."	"."	"."	"1"	"1"	"1"	"1"	"1"	"1"	"1"	"1"	"1"	"1"	"1"	"1"	"1"	"1"	"1"	"1"	"1"	"1"	"1"	"1"	"1"	"1"	"1"	"1"	"1"	"1"	"1"	"1"	"1"	"1"	"1"	"1"	"1"	"1"	"1"	"1"	"1"	"1"	"1"	"1"	"1"	"1"	"1"	"."	"."	"0.5"	"0.5"	"0.5"	"0.5"	"0.5"	"0.5"	"0.5"	"0.5"	"0.5"	"0.5"	"0.5"	"0.5"	"0.5"	"0.5"	"0.5"	"0.5"	"0.5"	"0.5"	"0.5"	"0.5"	"0.5"	"0.5"	"0.5"	"0.5"	"0.5"	"0.5"	"0.5"	"0.5"	"0.5"	"0.5"	"0.5"	"0.5"	"0.5"	"0.5"	""	""	""	""	""	""	""	""	""	""	""	""	""	""	""	""	""	""	""	""	""	""	""	""	""	""	""	""	""	""	""	""	""	""	""	""	NA	NA	NA	NA	NA	933	NA	0	0	2500	0	2500	"sol-ichart-v1-processed"	"./"	"V1"	"yes"	NA	"adult"	NA	"juice"	NA	"known_sign"	40	"include"	"Adults"	"C_T"	"1"	4	5	933	4	43	933	2	43	0.802816901408451	TRUE	TRUE	TRUE
"30004"	349	"F"	"sol-inc-1"	15	""	"bluecup.pct"	""	"redsockL.pct"	"l"	"bluecup.pct"	"Vanilla"	"D"	3	1933	3330	6000	"0.5"	"0.5"	"0.5"	"0.5"	"0.5"	"0.5"	"0.5"	"0.5"	"0.5"	"0.5"	"0.5"	"0.5"	"0.5"	"0.5"	"0.5"	"0.5"	"0.5"	"0.5"	"0.5"	"0.5"	"0.5"	"0.5"	"0.5"	"0.5"	"0.5"	"0.5"	"0.5"	"0.5"	"0.5"	"0.5"	"0.5"	"0.5"	"0.5"	"0.5"	"0.5"	"0.5"	"0.5"	"0.5"	"0.5"	"0.5"	"0.5"	"0.5"	"0.5"	"0.5"	"0.5"	"0.5"	"0.5"	"0.5"	"0.5"	"0.5"	"0.5"	"0.5"	"0.5"	"0.5"	"0.5"	"0.5"	"0.5"	"0.5"	"."	"."	"."	"1"	"1"	"1"	"1"	"1"	"1"	"1"	"1"	"1"	"1"	"1"	"1"	"1"	"1"	"1"	"1"	"1"	"1"	"."	"."	"0.5"	"0.5"	"0.5"	"0.5"	"0.5"	"0.5"	"0.5"	"0.5"	"0.5"	"0.5"	"0.5"	"0.5"	"0.5"	"0.5"	"0.5"	"0.5"	"0.5"	"0.5"	"0.5"	"0.5"	"0.5"	"0.5"	"0.5"	"0.5"	"0.5"	"0.5"	"0.5"	"0.5"	"0.5"	"0.5"	"0.5"	"0.5"	"0.5"	"0.5"	"0.5"	"0.5"	"0.5"	"0.5"	"0.5"	"0.5"	"0.5"	"0.5"	"0.5"	"0.5"	""	""	""	""	""	""	""	""	""	""	""	""	""	""	""	""	""	""	""	""	""	""	NA	NA	NA	NA	NA	1933	NA	0	0	2500	0	2500	"sol-ichart-v1-processed"	"./"	"V1"	"yes"	NA	"adult"	NA	"cup"	NA	"known_sign"	40	"include"	"Adults"	"C_T"	"1"	3	3	1933	3	15	1933	1	15	0.602739726027397	TRUE	TRUE	TRUE
"30004"	349	"F"	"sol-inc-1"	16	""	"juice1.pct"	""	"cookie1.pct"	"l"	"juice1.pct"	"Vanilla"	"D"	2	2367	2330	6000	"0.5"	"0.5"	"0.5"	"0.5"	"0.5"	"0.5"	"0.5"	"0.5"	"0.5"	"0.5"	"0.5"	"0.5"	"0.5"	"0.5"	"0.5"	"0.5"	"0.5"	"0.5"	"0.5"	"0.5"	"0.5"	"0.5"	"0.5"	"0.5"	"0.5"	"0.5"	"0.5"	"0.5"	"0.5"	"0.5"	"0.5"	"0.5"	"0.5"	"0.5"	"0.5"	"0.5"	"0.5"	"0.5"	"0.5"	"0.5"	"0.5"	"0.5"	"0.5"	"0.5"	"0.5"	"0.5"	"0.5"	"0.5"	"0.5"	"0.5"	"0.5"	"0.5"	"0.5"	"0.5"	"0.5"	"0.5"	"0.5"	"0.5"	"0.5"	"0.5"	"0.5"	"0.5"	"0.5"	"0.5"	"0.5"	"0.5"	"0.5"	"0.5"	"0.5"	"0.5"	"0.5"	"."	"."	"1"	"1"	"1"	"1"	"1"	"1"	"1"	"1"	"1"	"1"	"1"	"1"	"1"	"1"	"1"	"1"	"1"	"1"	"1"	"1"	"1"	"1"	"1"	"1"	"1"	"1"	""	""	""	""	""	""	""	""	""	""	""	""	""	""	""	""	""	""	""	""	""	""	""	""	""	""	""	""	""	""	""	""	""	""	""	""	""	""	""	""	""	""	""	""	""	""	""	""	NA	NA	NA	NA	NA	2367	NA	0	0	2500	0	2500	"sol-ichart-v1-processed"	"./"	"V1"	"yes"	NA	"adult"	NA	"juice"	NA	"known_sign"	40	"include"	"Adults"	"C_T"	"1"	2	2	2367	2	3	2367	1	3	0.52027027027027	TRUE	FALSE	TRUE
"30004"	349	"F"	"sol-inc-1"	17	""	"juice2.pct"	""	"cookie2.pct"	"r"	"cookie2.pct"	"Vanilla"	"D"	2	NA	2429	6000	"0.5"	"0.5"	"0.5"	"0.5"	"0.5"	"0.5"	"0.5"	"0.5"	"0.5"	"0.5"	"0.5"	"0.5"	"0.5"	"0.5"	"0.5"	"0.5"	"0.5"	"0.5"	"0.5"	"0.5"	"0.5"	"0.5"	"0.5"	"0.5"	"0.5"	"0.5"	"0.5"	"0.5"	"0.5"	"0.5"	"0.5"	"0.5"	"0.5"	"0.5"	"0.5"	"0.5"	"0.5"	"0.5"	"0.5"	"0.5"	"0.5"	"0.5"	"0.5"	"0.5"	"0.5"	"0.5"	"0.5"	"0.5"	"0.5"	"0.5"	"0.5"	"0.5"	"0.5"	"0.5"	"0.5"	"0.5"	"0.5"	"0.5"	"0.5"	"0.5"	"0.5"	"0.5"	"0.5"	"0.5"	"0.5"	"0.5"	"0.5"	"0.5"	"0.5"	"0.5"	"0.5"	"0.5"	"0.5"	"0.5"	"0.5"	"0.5"	"0.5"	"0.5"	"0.5"	"0.5"	"0.5"	"0.5"	"0.5"	"0.5"	"0.5"	"0.5"	"0.5"	"0.5"	"0.5"	"0.5"	"0.5"	"0.5"	"0.5"	"0.5"	"0.5"	"0.5"	"0.5"	"0.5"	"0.5"	"0.5"	"0.5"	"0.5"	"0.5"	"0.5"	"0.5"	"0.5"	"0.5"	"0.5"	"0.5"	"0.5"	"0.5"	"0.5"	"0.5"	"0.5"	"0.5"	"0.5"	"0.5"	"0.5"	"0.5"	"0.5"	"0.5"	"0.5"	"0.5"	"0.5"	"."	"."	"1"	"1"	"1"	"1"	"1"	"1"	"1"	"1"	"1"	"1"	"1"	"1"	"1"	"1"	"1"	"1"	"1"	"1"	""	""	""	NA	NA	NA	NA	NA	4133	NA	0	0	2500	0	2500	"sol-ichart-v1-processed"	"./"	"V1"	"yes"	NA	"adult"	NA	"cookie"	NA	"known_sign"	40	"include"	"Adults"	"no_shift"	"1"	0	0	NA	NA	0	NA	0	0	0.5	NA	NA	TRUE
"30004"	349	"F"	"sol-inc-1"	18	""	"redshoeR.pct"	""	"redball.pct"	"l"	"redshoeR.pct"	"Vanilla"	"D"	NA	NA	3231	6000	"0.5"	"0.5"	"0.5"	"0.5"	"0.5"	"0.5"	"0.5"	"0.5"	"0.5"	"0.5"	"0.5"	"0.5"	"0.5"	"0.5"	"0.5"	"0.5"	"0.5"	"0.5"	"0.5"	"0.5"	"0.5"	"0.5"	"0.5"	"0.5"	"0.5"	"0.5"	"0.5"	"0.5"	"0.5"	"0.5"	"0.5"	"0.5"	"0.5"	"0.5"	"0.5"	"0.5"	"0.5"	"0.5"	"0.5"	"0.5"	"0.5"	"0.5"	"0.5"	"0.5"	"0.5"	"0.5"	"0.5"	"0.5"	"0.5"	"0.5"	"0.5"	"0.5"	"0.5"	"0.5"	"0.5"	"0.5"	"0.5"	"0.5"	"0.5"	"0.5"	"0.5"	"0.5"	"0.5"	"0.5"	"0.5"	"0.5"	"0.5"	"0.5"	"0.5"	"0.5"	"0.5"	"0.5"	"0.5"	"0.5"	"0.5"	"0.5"	"0.5"	"0.5"	"0.5"	"0.5"	"0.5"	"0.5"	"0.5"	"0.5"	"0.5"	"0.5"	"0.5"	"0.5"	"0.5"	"0.5"	"0.5"	"0.5"	"0.5"	"0.5"	"0.5"	"0.5"	"0.5"	"0.5"	"0.5"	"0.5"	"0.5"	"0.5"	"0.5"	"0.5"	"0.5"	"0.5"	"0.5"	"0.5"	"0.5"	"0.5"	"0.5"	""	""	""	""	""	""	""	""	""	""	""	""	""	""	""	""	""	""	""	""	""	""	""	""	""	""	""	""	""	""	""	""	""	""	""	""	NA	NA	NA	NA	NA	NA	NA	0	0	2500	0	2500	"sol-ichart-v1-processed"	"./"	"V1"	"yes"	NA	"adult"	NA	"shoe"	NA	"known_sign"	40	"include"	"Adults"	"no_shift"	"1"	0	0	NA	NA	0	NA	0	0	0.5	NA	NA	TRUE
"30004"	349	"F"	"sol-inc-1"	19	""	"birdy3R.pct"	""	"kitty2L.pct"	"r"	"kitty2L.pct"	"Vanilla"	"D"	4	567	2297	6000	"0.5"	"0.5"	"0.5"	"0.5"	"0.5"	"0.5"	"0.5"	"0.5"	"0.5"	"0.5"	"0.5"	"0.5"	"0.5"	"0.5"	"0.5"	"0.5"	"0.5"	"."	"."	"."	"."	"1"	"1"	"1"	"1"	"1"	"1"	"1"	"1"	"1"	"1"	"1"	"1"	"1"	"1"	"1"	"1"	"1"	"1"	"1"	"1"	"1"	"1"	"1"	"1"	"1"	"1"	"1"	"1"	"1"	"1"	"1"	"1"	"1"	"1"	"1"	"1"	"1"	"1"	"1"	"1"	"1"	"1"	"1"	"1"	"1"	"1"	"1"	"1"	"1"	"."	"."	"0.5"	"0.5"	"0.5"	"0.5"	"0.5"	"0.5"	"0.5"	"0.5"	"0.5"	"0.5"	"0.5"	"0.5"	"0.5"	"0.5"	"0.5"	"0.5"	"0.5"	"0.5"	"0.5"	"0.5"	"0.5"	"0.5"	"0.5"	"0.5"	"0.5"	"0.5"	"0.5"	"0.5"	"0.5"	"0.5"	"0.5"	"0.5"	"0.5"	"0.5"	"0.5"	"0.5"	"0.5"	"0.5"	"0.5"	"0.5"	"0.5"	"0.5"	"0.5"	"0.5"	"0.5"	"0.5"	"0.5"	"0.5"	"0.5"	"0.5"	"0.5"	"0.5"	"0.5"	"0.5"	"0.5"	"0.5"	"0.5"	"0.5"	"0.5"	"0.5"	"0.5"	"0.5"	""	""	""	""	""	""	""	""	""	""	""	""	""	NA	NA	NA	NA	NA	567	NA	0	0	2500	0	2500	"sol-ichart-v1-processed"	"./"	"V1"	"yes"	NA	"adult"	NA	"kitty"	NA	"known_sign"	40	"include"	"Adults"	"C_T"	"1"	4	6	567	4	49	567	2	49	0.85	TRUE	TRUE	TRUE
"30004"	349	"F"	"sol-inc-1"	21	""	"blueball.pct"	""	"blueshoeL.pct"	"r"	"blueshoeL.pct"	"Vanilla"	"D"	4	1133	2825	6000	"0.5"	"0.5"	"0.5"	"0.5"	"0.5"	"0.5"	"0.5"	"0.5"	"0.5"	"0.5"	"0.5"	"0.5"	"0.5"	"0.5"	"0.5"	"0.5"	"0.5"	"0.5"	"0.5"	"0.5"	"0.5"	"0.5"	"0.5"	"0.5"	"0.5"	"0.5"	"0.5"	"0.5"	"0.5"	"0.5"	"0.5"	"0.5"	"0.5"	"0.5"	"."	"."	"."	"."	"1"	"1"	"1"	"1"	"1"	"1"	"1"	"1"	"1"	"1"	"1"	"1"	"1"	"1"	"1"	"1"	"1"	"1"	"1"	"1"	"1"	"1"	"1"	"1"	"1"	"1"	"1"	"1"	"1"	"1"	"1"	"1"	"1"	"1"	"1"	"1"	"1"	"1"	"1"	"1"	"1"	"1"	"1"	"1"	"1"	"1"	"1"	"1"	"1"	"1"	"1"	"1"	"."	"."	"0.5"	"0.5"	"0.5"	"0.5"	"0.5"	"0.5"	"0.5"	"0.5"	"0.5"	"0.5"	"0.5"	"0.5"	"0.5"	"0.5"	"0.5"	"0.5"	"0.5"	"0.5"	"0.5"	"0.5"	"0.5"	"0.5"	"0.5"	"0.5"	"0.5"	"0.5"	"0.5"	"0.5"	"0.5"	"0.5"	"0.5"	"0.5"	""	""	""	""	""	""	""	""	""	""	""	""	""	""	""	""	""	""	""	""	""	""	""	NA	NA	NA	NA	NA	1133	NA	0	0	2500	0	2500	"sol-ichart-v1-processed"	"./"	"V1"	"yes"	NA	"adult"	NA	"shoe"	NA	"known_sign"	40	"include"	"Adults"	"C_T"	"1"	4	4	1133	4	38	1133	1	38	0.763888888888889	TRUE	TRUE	TRUE
"30004"	349	"F"	"sol-inc-1"	22	""	"bluecup.pct"	""	"bluesockL.pct"	"r"	"bluesockL.pct"	"Vanilla"	"D"	3	1833	3561	6000	"0.5"	"0.5"	"0.5"	"0.5"	"0.5"	"0.5"	"0.5"	"0.5"	"0.5"	"0.5"	"0.5"	"0.5"	"0.5"	"0.5"	"0.5"	"0.5"	"0.5"	"0.5"	"0.5"	"0.5"	"0.5"	"0.5"	"0.5"	"0.5"	"0.5"	"0.5"	"0.5"	"0.5"	"0.5"	"0.5"	"0.5"	"0.5"	"0.5"	"0.5"	"0.5"	"0.5"	"0.5"	"0.5"	"0.5"	"0.5"	"0.5"	"0.5"	"0.5"	"0.5"	"0.5"	"0.5"	"0.5"	"0.5"	"0.5"	"0.5"	"0.5"	"0.5"	"0.5"	"0.5"	"0.5"	"."	"."	"."	"1"	"1"	"1"	"1"	"1"	"1"	"1"	"1"	"1"	"1"	"1"	"1"	"1"	"1"	"."	"0.5"	"0.5"	"0.5"	"0.5"	"0.5"	"0.5"	"0.5"	"0.5"	"0.5"	"0.5"	"0.5"	"0.5"	"0.5"	"0.5"	"0.5"	"0.5"	"0.5"	"0.5"	"0.5"	"0.5"	"0.5"	"0.5"	"0.5"	"0.5"	"0.5"	"0.5"	"0.5"	"0.5"	"0.5"	"0.5"	"0.5"	"0.5"	"0.5"	"0.5"	"0.5"	"0.5"	"0.5"	"0.5"	"."	"1"	"1"	"1"	"1"	"1"	"1"	"1"	"1"	"1"	"1"	"1"	"1"	""	""	""	""	""	""	""	""	""	""	""	""	""	""	""	""	""	""	""	""	""	""	""	NA	NA	NA	NA	NA	1833	NA	0	0	2500	0	2500	"sol-ichart-v1-processed"	"./"	"V1"	"yes"	NA	"adult"	NA	"sock"	NA	"known_sign"	40	"include"	"Adults"	"C_T"	"1"	3	4	1833	3	14	1833	2	14	0.597222222222222	TRUE	TRUE	TRUE
"30004"	349	"F"	"sol-inc-1"	23	""	"teddy2.pct"	""	"doll2L.pct"	"l"	"teddy2.pct"	"Vanilla"	"D"	3	767	2099	6000	"0.5"	"0.5"	"0.5"	"0.5"	"0.5"	"0.5"	"0.5"	"0.5"	"0.5"	"0.5"	"0.5"	"0.5"	"0.5"	"0.5"	"0.5"	"0.5"	"0.5"	"0.5"	"0.5"	"0.5"	"0.5"	"0.5"	"0.5"	"."	"."	"."	"1"	"1"	"1"	"1"	"1"	"1"	"1"	"1"	"1"	"1"	"1"	"1"	"1"	"1"	"1"	"1"	"1"	"1"	"1"	"1"	"1"	"1"	"1"	"1"	"1"	"1"	"1"	"1"	"1"	"."	"0.5"	"0.5"	"0.5"	"0.5"	"0.5"	"0.5"	"0.5"	"0.5"	"0.5"	"0.5"	"0.5"	"0.5"	"0.5"	"0.5"	"0.5"	"0.5"	"0.5"	"0.5"	"0.5"	"0.5"	"0.5"	"0.5"	"0.5"	"0.5"	"0.5"	"0.5"	"0.5"	"0.5"	"0.5"	"0.5"	"0.5"	"0.5"	"0.5"	"0.5"	"0.5"	"0.5"	"0.5"	"0.5"	"0.5"	"0.5"	"0.5"	"0.5"	"0.5"	"0.5"	"0.5"	"0.5"	"0.5"	"0.5"	"0.5"	"0.5"	"0.5"	"0.5"	"0.5"	"0.5"	"0.5"	"0.5"	"0.5"	"0.5"	"0.5"	"0.5"	"0.5"	"0.5"	"0.5"	"0.5"	"0.5"	"0.5"	"0.5"	""	""	""	""	""	""	""	""	""	""	""	""	""	""	""	""	""	""	""	""	""	""	""	""	NA	NA	NA	NA	NA	767	NA	0	0	2500	0	2500	"sol-ichart-v1-processed"	"./"	"V1"	"yes"	NA	"adult"	NA	"teddy"	NA	"known_sign"	40	"include"	"Adults"	"C_T"	"1"	3	4	767	3	29	767	2	29	0.701388888888889	TRUE	TRUE	TRUE
"30004"	349	"F"	"sol-inc-1"	24	""	"juice1.pct"	""	"cookie1.pct"	"l"	"juice1.pct"	"Vanilla"	"D"	3	1200	2165	6000	"0.5"	"0.5"	"0.5"	"0.5"	"0.5"	"0.5"	"0.5"	"0.5"	"0.5"	"0.5"	"0.5"	"0.5"	"0.5"	"0.5"	"0.5"	"0.5"	"0.5"	"0.5"	"0.5"	"0.5"	"0.5"	"0.5"	"0.5"	"0.5"	"0.5"	"0.5"	"0.5"	"0.5"	"0.5"	"0.5"	"0.5"	"0.5"	"0.5"	"0.5"	"0.5"	"0.5"	"."	"."	"."	"1"	"1"	"1"	"1"	"1"	"1"	"1"	"1"	"1"	"1"	"1"	"1"	"1"	"1"	"1"	"1"	"1"	"1"	"1"	"1"	"1"	"1"	"1"	"1"	"1"	"1"	"1"	"1"	"1"	"1"	"1"	"1"	"1"	"1"	"1"	"1"	"1"	"1"	"."	"."	"."	"0.5"	"0.5"	"0.5"	"0.5"	"0.5"	"0.5"	"0.5"	"0.5"	"0.5"	"0.5"	"0.5"	"0.5"	"0.5"	"0.5"	"0.5"	"0.5"	"0.5"	"0.5"	"0.5"	"0.5"	"0.5"	"0.5"	"0.5"	"0.5"	"0.5"	"0.5"	"0.5"	"0.5"	""	""	""	""	""	""	""	""	""	""	""	""	""	""	""	""	""	""	""	""	""	""	""	""	""	""	""	""	""	""	""	""	""	""	""	""	""	""	""	NA	NA	NA	NA	NA	1200	NA	0	0	2500	0	2500	"sol-ichart-v1-processed"	"./"	"V1"	"yes"	NA	"adult"	NA	"juice"	NA	"known_sign"	40	"include"	"Adults"	"C_T"	"1"	3	3	1200	3	37	1200	1	37	0.753424657534247	TRUE	TRUE	TRUE
"30004"	349	"F"	"sol-inc-1"	25	""	"birdy3R.pct"	""	"kitty2L.pct"	"l"	"birdy3R.pct"	"Vanilla"	"D"	3	1000	1957	6000	"0.5"	"0.5"	"0.5"	"0.5"	"0.5"	"0.5"	"0.5"	"0.5"	"0.5"	"0.5"	"0.5"	"0.5"	"0.5"	"0.5"	"0.5"	"0.5"	"0.5"	"0.5"	"0.5"	"0.5"	"0.5"	"0.5"	"0.5"	"0.5"	"0.5"	"0.5"	"0.5"	"0.5"	"0.5"	"0.5"	"."	"."	"."	"1"	"1"	"1"	"1"	"1"	"1"	"1"	"1"	"1"	"1"	"1"	"1"	"1"	"1"	"1"	"1"	"1"	"1"	"1"	"1"	"1"	"1"	"1"	"1"	"1"	"1"	"1"	"1"	"1"	"1"	"1"	"1"	"1"	"1"	"1"	"1"	"1"	"1"	"1"	"."	"."	"0.5"	"0.5"	"0.5"	"0.5"	"0.5"	"0.5"	"0.5"	"0.5"	"0.5"	"0.5"	"0.5"	"0.5"	"0.5"	"0.5"	"0.5"	"0.5"	"0.5"	"0.5"	"0.5"	"0.5"	"0.5"	""	""	""	""	""	""	""	""	""	""	""	""	""	""	""	""	""	""	""	""	""	""	""	""	""	""	""	""	""	""	""	""	""	""	""	""	""	""	""	""	""	""	""	""	""	""	""	""	""	""	""	""	NA	NA	NA	NA	NA	1000	NA	0	0	2500	0	2500	"sol-ichart-v1-processed"	"./"	"V1"	"yes"	NA	"adult"	NA	"birdy"	NA	"known_sign"	40	"include"	"Adults"	"C_T"	"1"	3	5	1000	3	39	1000	2	39	0.774647887323944	TRUE	TRUE	TRUE
"30004"	349	"F"	"sol-inc-1"	26	""	"bluesockR.pct"	""	"redcup.pct"	"r"	"redcup.pct"	"Vanilla"	"D"	2	1233	3594	6000	"0.5"	"0.5"	"0.5"	"0.5"	"0.5"	"0.5"	"0.5"	"0.5"	"0.5"	"0.5"	"0.5"	"0.5"	"0.5"	"0.5"	"0.5"	"0.5"	"0.5"	"0.5"	"0.5"	"0.5"	"0.5"	"0.5"	"0.5"	"0.5"	"0.5"	"0.5"	"0.5"	"0.5"	"0.5"	"0.5"	"0.5"	"0.5"	"0.5"	"0.5"	"0.5"	"0.5"	"0.5"	"."	"."	"1"	"1"	"1"	"1"	"1"	"1"	"1"	"1"	"1"	"1"	"1"	"1"	"1"	"1"	"1"	"1"	"1"	"1"	"1"	"1"	"1"	"1"	"1"	"1"	"1"	"1"	"1"	"1"	"1"	"1"	"1"	"1"	"1"	"1"	"1"	"1"	"1"	"1"	"1"	"1"	"1"	"1"	"1"	"1"	"."	"."	"0.5"	"0.5"	"0.5"	"0.5"	"0.5"	"0.5"	"0.5"	"0.5"	"0.5"	"0.5"	"0.5"	"0.5"	"0.5"	"0.5"	"0.5"	"0.5"	"0.5"	"0.5"	"0.5"	"0.5"	"0.5"	"0.5"	"0.5"	"0.5"	"0.5"	"0.5"	"0.5"	"0.5"	"0.5"	"0.5"	"0.5"	"0.5"	"0.5"	"0.5"	"0.5"	"0.5"	"0.5"	"0.5"	"0.5"	"0.5"	"0.5"	"0.5"	"0.5"	"0.5"	"0.5"	"0.5"	"0.5"	"0.5"	"0.5"	"0.5"	"0.5"	"0.5"	"0.5"	"0.5"	"0.5"	"0.5"	"0.5"	"0.5"	"0.5"	"0.5"	"0.5"	"0.5"	"0.5"	"0.5"	NA	NA	NA	1233	NA	0	0	2500	0	2500	"sol-ichart-v1-processed"	"./"	"V1"	"yes"	NA	"adult"	NA	"cup"	NA	"known_sign"	40	"include"	"Adults"	"C_T"	"1"	2	2	1233	2	37	1233	1	37	0.75	TRUE	TRUE	TRUE
"30004"	349	"F"	"sol-inc-1"	27	""	"juice2.pct"	""	"cookie2.pct"	"r"	"cookie2.pct"	"Vanilla"	"D"	4	800	2330	6000	"0.5"	"0.5"	"0.5"	"0.5"	"0.5"	"0.5"	"0.5"	"0.5"	"0.5"	"0.5"	"0.5"	"0.5"	"0.5"	"0.5"	"0.5"	"0.5"	"0.5"	"0.5"	"0.5"	"0.5"	"0.5"	"0.5"	"0.5"	"0.5"	"."	"."	"."	"."	"1"	"1"	"1"	"1"	"1"	"1"	"1"	"1"	"1"	"1"	"1"	"1"	"1"	"1"	"1"	"1"	"1"	"."	"."	"."	"."	"0.5"	"0.5"	"0.5"	"0.5"	"0.5"	"0.5"	"0.5"	"0.5"	"0.5"	"0.5"	"0.5"	"0.5"	"0.5"	"0.5"	"0.5"	"0.5"	"0.5"	"0.5"	"0.5"	"0.5"	"0.5"	"0.5"	"0.5"	"0.5"	"0.5"	"0.5"	"0.5"	"0.5"	"0.5"	"0.5"	"0.5"	"0.5"	"0.5"	"0.5"	"0.5"	"0.5"	"0.5"	"0.5"	"0.5"	"0.5"	"0.5"	"0.5"	"0.5"	"0.5"	"0.5"	"0.5"	"0.5"	"0.5"	"0.5"	"0.5"	"0.5"	"0.5"	"0.5"	"0.5"	"0.5"	"0.5"	"0.5"	"0.5"	"0.5"	"0.5"	"0.5"	"0.5"	"0.5"	"0.5"	"0.5"	"0.5"	"0.5"	""	""	""	""	""	""	""	""	""	""	""	""	""	""	""	""	""	""	""	""	""	""	""	""	""	""	""	""	""	""	""	NA	NA	NA	NA	NA	800	NA	0	0	2500	0	2500	"sol-ichart-v1-processed"	"./"	"V1"	"yes"	NA	"adult"	NA	"cookie"	NA	"known_sign"	40	"include"	"Adults"	"C_T"	"1"	4	8	800	4	17	800	2	17	0.625	TRUE	TRUE	TRUE
"30004"	349	"F"	"sol-inc-1"	28	""	"doll1L.pct"	""	"teddy1.pct"	"l"	"doll1L.pct"	"Vanilla"	"D"	2	1000	1924	6000	"0.5"	"0.5"	"0.5"	"0.5"	"0.5"	"0.5"	"0.5"	"0.5"	"0.5"	"0.5"	"0.5"	"0.5"	"0.5"	"0.5"	"0.5"	"0.5"	"0.5"	"0.5"	"0.5"	"0.5"	"0.5"	"0.5"	"0.5"	"0.5"	"0.5"	"0.5"	"0.5"	"0.5"	"0.5"	"0.5"	"."	"."	"1"	"1"	"1"	"1"	"1"	"1"	"1"	"1"	"1"	"1"	"1"	"1"	"1"	"1"	"1"	"1"	"1"	"1"	"1"	"1"	"1"	"1"	"1"	"1"	"1"	"1"	"1"	"1"	"1"	"1"	"1"	"1"	"1"	"1"	"1"	"1"	"1"	"1"	"1"	"1"	"1"	"1"	"1"	"1"	"1"	"1"	"1"	"1"	"1"	"1"	"1"	"1"	"1"	"1"	"1"	"1"	"1"	"1"	"1"	"1"	"1"	"1"	"1"	"1"	"1"	"1"	"1"	"1"	"1"	"1"	"1"	"1"	"1"	"1"	"1"	"1"	"1"	"1"	"1"	"1"	"1"	"1"	"1"	"1"	"1"	"1"	"1"	""	""	""	""	""	""	""	""	""	""	""	""	""	""	""	""	""	""	""	""	""	""	""	""	""	""	""	""	NA	NA	NA	NA	NA	1000	NA	0	0	2500	0	2500	"sol-ichart-v1-processed"	"./"	"V1"	"yes"	NA	"adult"	NA	"doll"	NA	"known_sign"	40	"include"	"Adults"	"C_T"	"1"	2	2	1000	2	44	1000	1	44	0.797297297297297	TRUE	TRUE	TRUE
"30004"	349	"F"	"sol-inc-1"	29	""	"bluecup.pct"	""	"bluesockL.pct"	"l"	"bluecup.pct"	"Vanilla"	"D"	2	1867	3330	6000	"0.5"	"0.5"	"0.5"	"0.5"	"0.5"	"0.5"	"0.5"	"0.5"	"0.5"	"0.5"	"0.5"	"0.5"	"0.5"	"0.5"	"0.5"	"0.5"	"0.5"	"0.5"	"0.5"	"0.5"	"0.5"	"0.5"	"0.5"	"0.5"	"0.5"	"0.5"	"0.5"	"0.5"	"0.5"	"0.5"	"0.5"	"0.5"	"0.5"	"0.5"	"0.5"	"0.5"	"0.5"	"0.5"	"0.5"	"0.5"	"0.5"	"0.5"	"0.5"	"0.5"	"0.5"	"0.5"	"0.5"	"0.5"	"0.5"	"0.5"	"0.5"	"0.5"	"0.5"	"0.5"	"0.5"	"0.5"	"."	"."	"1"	"1"	"1"	"1"	"1"	"1"	"1"	"1"	"1"	"1"	"1"	"1"	"1"	"1"	"1"	"1"	"1"	"1"	"1"	"1"	"1"	"1"	"1"	"1"	"1"	"1"	"1"	"1"	"1"	"1"	"1"	"1"	"1"	"1"	"1"	"1"	"1"	"1"	"1"	"1"	"1"	"1"	"1"	"1"	"1"	"1"	"1"	"1"	"1"	"1"	"1"	"1"	"1"	"1"	"1"	"1"	"1"	"1"	"1"	"1"	"1"	"1"	"1"	"1"	"1"	"1"	"1"	"1"	"1"	""	""	""	""	""	""	""	""	""	""	""	""	""	""	""	""	""	""	""	""	NA	NA	NA	NA	NA	1867	NA	0	0	2500	0	2500	"sol-ichart-v1-processed"	"./"	"V1"	"yes"	NA	"adult"	NA	"cup"	NA	"known_sign"	40	"include"	"Adults"	"C_T"	"1"	2	2	1867	2	18	1867	1	18	0.621621621621622	TRUE	TRUE	TRUE
"30004"	349	"F"	"sol-inc-1"	30	""	"cookie2.pct"	""	"juice2.pct"	"r"	"juice2.pct"	"Vanilla"	"D"	2	1267	2330	6000	"0.5"	"0.5"	"0.5"	"0.5"	"0.5"	"0.5"	"0.5"	"0.5"	"0.5"	"0.5"	"0.5"	"0.5"	"0.5"	"0.5"	"0.5"	"0.5"	"0.5"	"0.5"	"0.5"	"0.5"	"0.5"	"0.5"	"0.5"	"0.5"	"0.5"	"0.5"	"0.5"	"0.5"	"0.5"	"0.5"	"0.5"	"0.5"	"0.5"	"0.5"	"0.5"	"0.5"	"0.5"	"0.5"	"."	"."	"1"	"1"	"1"	"1"	"1"	"1"	"1"	"1"	"1"	"1"	"1"	"1"	"1"	"1"	"1"	"1"	"1"	"1"	"1"	"1"	"1"	"1"	"1"	"1"	"1"	"1"	"1"	"1"	"1"	"1"	"1"	"1"	"1"	"1"	"1"	"1"	"1"	"1"	"1"	"1"	"1"	"1"	"."	"0.5"	"0.5"	"0.5"	"0.5"	"0.5"	"0.5"	"0.5"	"0.5"	"0.5"	""	""	""	""	""	""	""	""	""	""	""	""	""	""	""	""	""	""	""	""	""	""	""	""	""	""	""	""	""	""	""	""	""	""	""	""	""	""	""	""	""	""	""	""	""	""	""	""	""	""	""	""	""	""	""	NA	NA	NA	NA	NA	1267	NA	0	0	2500	0	2500	"sol-ichart-v1-processed"	"./"	"V1"	"yes"	NA	"adult"	NA	"juice"	NA	"known_sign"	40	"include"	"Adults"	"C_T"	"1"	2	2	1267	2	36	1267	1	36	0.743243243243243	TRUE	TRUE	TRUE
"30004"	349	"F"	"sol-inc-1"	31	""	"redshoeR.pct"	""	"redball.pct"	"r"	"redball.pct"	"Vanilla"	"D"	2	1000	3033	6000	"0.5"	"0.5"	"0.5"	"0.5"	"0.5"	"0.5"	"0.5"	"0.5"	"0.5"	"0.5"	"0.5"	"0.5"	"0.5"	"0.5"	"0.5"	"0.5"	"0.5"	"0.5"	"0.5"	"0.5"	"0.5"	"0.5"	"0.5"	"0.5"	"0.5"	"0.5"	"0.5"	"0.5"	"0.5"	"0.5"	"."	"."	"1"	"1"	"1"	"1"	"1"	"1"	"1"	"1"	"1"	"1"	"1"	"1"	"1"	"1"	"1"	"1"	"1"	"1"	"1"	"1"	"1"	"1"	"1"	"1"	"1"	"1"	"1"	"1"	"1"	"1"	"1"	"1"	"1"	"1"	"1"	"1"	"1"	"1"	"1"	"1"	"1"	"1"	"1"	"1"	"1"	"1"	"1"	"1"	"1"	"1"	"1"	"1"	"1"	"1"	"1"	"1"	"1"	"1"	"1"	"1"	"1"	"1"	"1"	"1"	"1"	"1"	"1"	"."	"."	"."	"."	"0.5"	"0.5"	"0.5"	"0.5"	"0.5"	"0.5"	"0.5"	"0.5"	"0.5"	"0.5"	"0.5"	"0.5"	"0.5"	"0.5"	"0.5"	"0.5"	"0.5"	"0.5"	"0.5"	"0.5"	"0.5"	"0.5"	"0.5"	"0.5"	"0.5"	"0.5"	"0.5"	"0.5"	"0.5"	"0.5"	""	""	""	""	""	""	""	""	""	""	""	""	""	""	NA	NA	NA	NA	NA	1000	NA	0	0	2500	0	2500	"sol-ichart-v1-processed"	"./"	"V1"	"yes"	NA	"adult"	NA	"ball"	NA	"known_sign"	40	"include"	"Adults"	"C_T"	"1"	2	2	1000	2	44	1000	1	44	0.797297297297297	TRUE	TRUE	TRUE
"30004"	349	"F"	"sol-inc-1"	32	""	"cookie1.pct"	""	"juice1.pct"	"l"	"cookie1.pct"	"Vanilla"	"D"	2	1067	2429	6000	"0.5"	"0.5"	"0.5"	"0.5"	"0.5"	"0.5"	"0.5"	"0.5"	"0.5"	"0.5"	"0.5"	"0.5"	"0.5"	"0.5"	"0.5"	"0.5"	"0.5"	"0.5"	"0.5"	"0.5"	"0.5"	"0.5"	"0.5"	"0.5"	"0.5"	"0.5"	"0.5"	"0.5"	"0.5"	"0.5"	"0.5"	"0.5"	"."	"."	"1"	"1"	"1"	"1"	"1"	"1"	"1"	"1"	"1"	"1"	"1"	"1"	"1"	"1"	"1"	"1"	"1"	"1"	"1"	"1"	"1"	"1"	"1"	"1"	"1"	"1"	"1"	"1"	"1"	"1"	"1"	"1"	"1"	"1"	"1"	"1"	"1"	"1"	"1"	"1"	"1"	"1"	"1"	"1"	"1"	"1"	"1"	"1"	"1"	"1"	"1"	"1"	"1"	"1"	"1"	"1"	"1"	"1"	"."	"."	"0.5"	"0.5"	"0.5"	"0.5"	"0.5"	"0.5"	"0.5"	"0.5"	"0.5"	"0.5"	"0.5"	"0.5"	"0.5"	"0.5"	"0.5"	"0.5"	"0.5"	"0.5"	""	""	""	""	""	""	""	""	""	""	""	""	""	""	""	""	""	""	""	""	""	""	""	""	""	""	""	""	""	""	""	""	""	""	""	NA	NA	NA	NA	NA	1067	NA	0	0	2500	0	2500	"sol-ichart-v1-processed"	"./"	"V1"	"yes"	NA	"adult"	NA	"cookie"	NA	"known_sign"	40	"include"	"Adults"	"C_T"	"1"	2	2	1067	2	42	1067	1	42	0.783783783783784	TRUE	TRUE	TRUE
"30004"	349	"F"	"sol-inc-1"	34	""	"cookie3.pct"	""	"juice3.pct"	"l"	"cookie3.pct"	"Vanilla"	"D"	6	1133	2330	6000	"0.5"	"0.5"	"0.5"	"0.5"	"0.5"	"0.5"	"0.5"	"0.5"	"0.5"	"0.5"	"0.5"	"0.5"	"0.5"	"0.5"	"0.5"	"0.5"	"0.5"	"0.5"	"0.5"	"0.5"	"0.5"	"0.5"	"0.5"	"0.5"	"0.5"	"0.5"	"0.5"	"0.5"	"0.5"	"0.5"	"0.5"	"0.5"	"0.5"	"0.5"	"."	"."	"."	"."	"."	"."	"1"	"1"	"1"	"1"	"1"	"1"	"1"	"1"	"1"	"1"	"1"	"1"	"1"	"1"	"1"	"1"	"1"	"1"	"1"	"1"	"1"	"1"	"1"	"1"	"1"	"1"	"1"	"1"	"1"	"1"	"1"	"1"	"1"	"1"	"1"	"1"	"1"	"."	"."	"0.5"	"0.5"	"0.5"	"0.5"	"0.5"	"0.5"	"0.5"	"0.5"	"0.5"	"0.5"	"0.5"	"0.5"	"0.5"	"0.5"	"0.5"	"0.5"	"0.5"	"0.5"	"0.5"	"0.5"	"0.5"	"0.5"	"0.5"	"0.5"	"0.5"	"0.5"	"0.5"	"0.5"	"0.5"	"0.5"	"0.5"	"0.5"	"0.5"	"0.5"	"0.5"	"0.5"	"0.5"	""	""	""	""	""	""	""	""	""	""	""	""	""	""	""	""	""	""	""	""	""	""	""	""	""	""	""	""	""	""	""	NA	NA	NA	NA	NA	1133	NA	0	0	2500	0	2500	"sol-ichart-v1-processed"	"./"	"V1"	"yes"	NA	"adult"	NA	"cookie"	NA	"known_sign"	40	"include"	"Adults"	"C_T"	"1"	6	6	1133	6	36	1133	1	36	0.757142857142857	TRUE	TRUE	TRUE
"30004"	349	"F"	"sol-inc-1"	35	""	"redshoeR.pct"	""	"blueball.pct"	"r"	"blueball.pct"	"Vanilla"	"D"	2	1067	3066	6000	"0.5"	"0.5"	"0.5"	"0.5"	"0.5"	"0.5"	"0.5"	"0.5"	"0.5"	"0.5"	"0.5"	"0.5"	"0.5"	"0.5"	"0.5"	"0.5"	"0.5"	"0.5"	"0.5"	"0.5"	"0.5"	"0.5"	"0.5"	"0.5"	"0.5"	"0.5"	"0.5"	"0.5"	"0.5"	"0.5"	"0.5"	"0.5"	"."	"."	"1"	"1"	"1"	"1"	"1"	"1"	"1"	"1"	"1"	"1"	"1"	"1"	"1"	"1"	"1"	"1"	"1"	"1"	"1"	"1"	"1"	"1"	"1"	"1"	"1"	"1"	"1"	"1"	"1"	"1"	"1"	"1"	"1"	"1"	"1"	"1"	"1"	"1"	"1"	"1"	"1"	"1"	"1"	"1"	"1"	"1"	"1"	"1"	"1"	"1"	"1"	"1"	"1"	"1"	"1"	"."	"0.5"	"0.5"	"0.5"	"0.5"	"0.5"	"0.5"	"0.5"	"0.5"	"0.5"	"0.5"	"0.5"	"0.5"	"0.5"	"0.5"	"0.5"	"0.5"	"0.5"	"0.5"	"0.5"	"0.5"	"0.5"	"0.5"	"0.5"	"0.5"	"0.5"	"0.5"	"0.5"	""	""	""	""	""	""	""	""	""	""	""	""	""	""	""	""	""	""	""	""	""	""	""	""	""	""	""	""	""	""	NA	NA	NA	NA	NA	1067	NA	0	0	2500	0	2500	"sol-ichart-v1-processed"	"./"	"V1"	"yes"	NA	"adult"	NA	"ball"	NA	"known_sign"	40	"include"	"Adults"	"C_T"	"1"	2	2	1067	2	42	1067	1	42	0.783783783783784	TRUE	TRUE	TRUE
"30004"	349	"F"	"sol-inc-1"	36	""	"redball.pct"	""	"blueshoeL.pct"	"r"	"blueshoeL.pct"	"Vanilla"	"D"	2	733	2825	6000	"0.5"	"0.5"	"0.5"	"0.5"	"0.5"	"0.5"	"0.5"	"0.5"	"0.5"	"0.5"	"0.5"	"0.5"	"0.5"	"0.5"	"0.5"	"0.5"	"0.5"	"0.5"	"0.5"	"0.5"	"0.5"	"0.5"	"."	"."	"1"	"1"	"1"	"1"	"1"	"1"	"1"	"1"	"1"	"1"	"1"	"1"	"1"	"1"	"1"	"1"	"1"	"1"	"1"	"1"	"1"	"1"	"1"	"1"	"1"	"1"	"1"	"1"	"1"	"1"	"1"	"1"	"1"	"1"	"1"	"1"	"1"	"1"	"1"	"1"	"1"	"1"	"1"	"1"	"1"	"1"	"1"	"1"	"."	"."	"0.5"	"0.5"	"0.5"	"0.5"	"0.5"	"0.5"	"0.5"	"0.5"	"0.5"	"0.5"	"0.5"	"0.5"	"0.5"	"0.5"	"0.5"	"0.5"	"0.5"	"0.5"	"0.5"	"0.5"	"0.5"	"0.5"	"0.5"	"0.5"	"0.5"	"0.5"	"0.5"	"0.5"	"0.5"	"0.5"	"0.5"	"0.5"	"0.5"	"0.5"	"0.5"	"0.5"	"0.5"	"0.5"	"0.5"	"0.5"	"0.5"	"0.5"	"0.5"	"0.5"	"0.5"	"0.5"	"0.5"	"0.5"	"0.5"	""	""	""	""	""	""	""	""	""	""	""	""	""	""	""	""	""	""	""	""	""	""	""	""	NA	NA	NA	NA	NA	733	NA	0	0	2500	0	2500	"sol-ichart-v1-processed"	"./"	"V1"	"yes"	NA	"adult"	NA	"shoe"	NA	"known_sign"	40	"include"	"Adults"	"C_T"	"1"	2	4	733	2	48	733	2	48	0.833333333333333	TRUE	TRUE	TRUE
"30004"	349	"F"	"sol-inc-1"	37	""	"doll4L.pct"	""	"teddy3.pct"	"r"	"teddy3.pct"	"Vanilla"	"D"	2	NA	2099	6000	"0.5"	"0.5"	"0.5"	"0.5"	"0.5"	"0.5"	"0.5"	"0.5"	"0.5"	"0.5"	"0.5"	"0.5"	"0.5"	"0.5"	"0.5"	"0.5"	"0.5"	"0.5"	"0.5"	"0.5"	"0.5"	"0.5"	"0.5"	"0.5"	"0.5"	"0.5"	"0.5"	"0.5"	"0.5"	"0.5"	"0.5"	"0.5"	"0.5"	"0.5"	"0.5"	"0.5"	"0.5"	"0.5"	"0.5"	"0.5"	"0.5"	"0.5"	"0.5"	"0.5"	"0.5"	"0.5"	"0.5"	"0.5"	"0.5"	"0.5"	"0.5"	"0.5"	"0.5"	"0.5"	"0.5"	"0.5"	"0.5"	"0.5"	"0.5"	"0.5"	"0.5"	"0.5"	"0.5"	"0.5"	"0.5"	"0.5"	"0.5"	"0.5"	"0.5"	"0.5"	"0.5"	"0.5"	"0.5"	"0.5"	"0.5"	"0.5"	"0.5"	"0.5"	"0.5"	"0.5"	"0.5"	"0.5"	"0.5"	"0.5"	"0.5"	"0.5"	"0.5"	"0.5"	"0.5"	"0.5"	"0.5"	"0.5"	"0.5"	"0.5"	"0.5"	"0.5"	"0.5"	"0.5"	"0.5"	"0.5"	"0.5"	"0.5"	"0.5"	"0.5"	"0.5"	"0.5"	"0.5"	"0.5"	"0.5"	"0.5"	"0.5"	"0.5"	"0.5"	"0.5"	"."	"."	"1"	"1"	"1"	"1"	"1"	"1"	"1"	"1"	""	""	""	""	""	""	""	""	""	""	""	""	""	""	""	""	""	""	""	""	""	""	""	NA	NA	NA	NA	NA	3800	NA	0	0	2500	0	2500	"sol-ichart-v1-processed"	"./"	"V1"	"yes"	NA	"adult"	NA	"teddy"	NA	"known_sign"	40	"include"	"Adults"	"no_shift"	"1"	0	0	NA	NA	0	NA	0	0	0.5	NA	NA	TRUE
"30004"	349	"F"	"sol-inc-1"	38	""	"redsockR.pct"	""	"redcup.pct"	"l"	"redsockR.pct"	"Vanilla"	"D"	3	800	3165	6000	"0.5"	"0.5"	"0.5"	"0.5"	"0.5"	"0.5"	"0.5"	"0.5"	"0.5"	"0.5"	"0.5"	"0.5"	"0.5"	"0.5"	"0.5"	"0.5"	"0.5"	"0.5"	"0.5"	"0.5"	"0.5"	"0.5"	"0.5"	"0.5"	"."	"."	"."	"0"	"0"	"0"	"0"	"0"	"0"	"0"	"0"	"0"	"."	"."	"."	"."	"1"	"1"	"1"	"1"	"1"	"1"	"1"	"1"	"1"	"1"	"1"	"1"	"1"	"1"	"1"	"1"	"1"	"1"	"."	"."	"0.5"	"0.5"	"0.5"	"0.5"	"0.5"	"0.5"	"0.5"	"0.5"	"0.5"	"0.5"	"0.5"	"0.5"	"0.5"	"0.5"	"0.5"	"0.5"	"0.5"	"0.5"	"0.5"	"0.5"	"0.5"	"0.5"	"0.5"	"0.5"	"0.5"	"0.5"	"0.5"	"0.5"	"0.5"	"0.5"	"0.5"	"0.5"	"0.5"	"0.5"	"0.5"	"0.5"	"0.5"	"0.5"	"0.5"	"0.5"	"0.5"	"0.5"	"0.5"	"0.5"	"."	"."	"."	"."	"."	"."	"."	"."	"."	""	""	""	""	""	""	""	""	""	""	""	""	""	""	""	""	""	""	""	""	""	""	""	""	""	""	""	""	""	""	""	""	""	""	NA	NA	NA	NA	NA	800	NA	0	0	2500	0	2500	"sol-ichart-v1-processed"	"./"	"V1"	"yes"	NA	"adult"	NA	"sock"	NA	"known_sign"	40	"include"	"Adults"	"C_D"	"1"	4	9	1200	3	18	1200	3	9	0.567164179104478	TRUE	TRUE	TRUE
"30004"	349	"F"	"sol-inc-1"	39	""	"kitty4R.pct"	""	"birdy4L.pct"	"l"	"kitty4R.pct"	"Vanilla"	"D"	2	1433	3132	6000	"0.5"	"0.5"	"0.5"	"0.5"	"0.5"	"0.5"	"0.5"	"0.5"	"0.5"	"0.5"	"0.5"	"0.5"	"0.5"	"0.5"	"0.5"	"0.5"	"0.5"	"0.5"	"0.5"	"0.5"	"0.5"	"0.5"	"0.5"	"0.5"	"0.5"	"0.5"	"0.5"	"0.5"	"0.5"	"0.5"	"0.5"	"0.5"	"0.5"	"0.5"	"0.5"	"0.5"	"0.5"	"0.5"	"0.5"	"0.5"	"0.5"	"0.5"	"0.5"	"."	"."	"1"	"1"	"1"	"1"	"1"	"1"	"1"	"1"	"1"	"1"	"1"	"1"	"1"	"1"	"1"	"1"	"1"	"1"	"1"	"1"	"1"	"1"	"1"	"1"	"1"	"1"	"1"	"1"	"1"	"1"	"1"	"1"	"1"	"1"	"1"	"1"	"1"	"1"	"1"	"1"	"1"	"1"	"1"	"1"	"1"	"1"	"1"	"1"	"1"	"1"	"1"	"1"	"1"	"1"	"1"	"1"	"1"	"1"	"1"	"1"	"1"	"1"	"1"	"1"	"1"	"1"	"1"	"1"	"1"	"1"	"1"	"1"	"1"	"1"	"1"	"1"	"1"	"1"	"1"	"1"	"1"	"1"	"1"	"1"	"1"	"1"	"1"	"1"	""	""	""	""	""	""	""	""	""	""	""	""	""	""	NA	NA	NA	NA	NA	1433	NA	0	0	2500	0	2500	"sol-ichart-v1-processed"	"./"	"V1"	"yes"	NA	"adult"	NA	"kitty"	NA	"known_sign"	40	"include"	"Adults"	"C_T"	"1"	2	2	1433	2	31	1433	1	31	0.709459459459459	TRUE	TRUE	TRUE
"30004"	349	"F"	"sol-inc-1"	40	""	"cookie1.pct"	""	"juice1.pct"	"r"	"juice1.pct"	"Vanilla"	"D"	4	867	2330	6000	"0.5"	"0.5"	"0.5"	"0.5"	"0.5"	"0.5"	"0.5"	"0.5"	"0.5"	"0.5"	"0.5"	"0.5"	"0.5"	"0.5"	"0.5"	"0.5"	"0.5"	"0.5"	"0.5"	"0.5"	"0.5"	"0.5"	"0.5"	"0.5"	"0.5"	"0.5"	"."	"."	"."	"."	"1"	"1"	"1"	"1"	"1"	"1"	"1"	"1"	"1"	"1"	"1"	"1"	"1"	"1"	"1"	"1"	"1"	"1"	"1"	"1"	"1"	"1"	"1"	"1"	"1"	"1"	"1"	"1"	"1"	"1"	"1"	"1"	"1"	"1"	"1"	"1"	"1"	"1"	"1"	"1"	"1"	"1"	"1"	"1"	"1"	"1"	"1"	"1"	"1"	"1"	"1"	"1"	"1"	"1"	"1"	"1"	"1"	"1"	"1"	"1"	"1"	"1"	""	""	""	""	""	""	""	""	""	""	""	""	""	""	""	""	""	""	""	""	""	""	""	""	""	""	""	""	""	""	""	""	""	""	""	""	""	""	""	""	""	""	""	""	""	""	""	""	""	""	""	""	""	""	""	NA	NA	NA	NA	NA	867	NA	0	0	2500	0	2500	"sol-ichart-v1-processed"	"./"	"V1"	"yes"	NA	"adult"	NA	"juice"	NA	"known_sign"	40	"include"	"Adults"	"C_T"	"1"	4	4	867	4	46	867	1	46	0.819444444444444	TRUE	TRUE	TRUE
"30004"	349	"F"	"sol-inc-1"	41	""	"juice3.pct"	""	"cookie3.pct"	"r"	"cookie3.pct"	"Vanilla"	"D"	4	767	2429	6000	"0.5"	"0.5"	"0.5"	"0.5"	"0.5"	"0.5"	"0.5"	"0.5"	"0.5"	"0.5"	"0.5"	"0.5"	"0.5"	"0.5"	"0.5"	"0.5"	"0.5"	"0.5"	"0.5"	"0.5"	"0.5"	"0.5"	"0.5"	"."	"."	"."	"."	"1"	"1"	"1"	"1"	"1"	"1"	"1"	"1"	"1"	"1"	"1"	"1"	"1"	"1"	"1"	"1"	"1"	"1"	"1"	"1"	"1"	"1"	"1"	"1"	"1"	"1"	"1"	"1"	"1"	"1"	"1"	"1"	"1"	"1"	"1"	"1"	"1"	"1"	"1"	"1"	"1"	"1"	"1"	"1"	"1"	"1"	"1"	"1"	"1"	"."	"."	"0.5"	"0.5"	"0.5"	"0.5"	"0.5"	"0.5"	"0.5"	"0.5"	"0.5"	"0.5"	"0.5"	"0.5"	"0.5"	"0.5"	"0.5"	"0.5"	"0.5"	"0.5"	"0.5"	"0.5"	"0.5"	"0.5"	"0.5"	"0.5"	"0.5"	"0.5"	"0.5"	"0.5"	"0.5"	"0.5"	"0.5"	"0.5"	"0.5"	"0.5"	""	""	""	""	""	""	""	""	""	""	""	""	""	""	""	""	""	""	""	""	""	""	""	""	""	""	""	""	""	""	""	""	""	""	""	NA	NA	NA	NA	NA	767	NA	0	0	2500	0	2500	"sol-ichart-v1-processed"	"./"	"V1"	"yes"	NA	"adult"	NA	"cookie"	NA	"known_sign"	40	"include"	"Adults"	"C_T"	"1"	4	4	767	4	49	767	1	49	0.840277777777778	TRUE	TRUE	TRUE
"30004"	349	"F"	"sol-inc-1"	42	""	"redshoeR.pct"	""	"blueball.pct"	"l"	"redshoeR.pct"	"Vanilla"	"D"	3	700	3231	6000	"0.5"	"0.5"	"0.5"	"0.5"	"0.5"	"0.5"	"0.5"	"0.5"	"0.5"	"0.5"	"0.5"	"0.5"	"0.5"	"0.5"	"0.5"	"0.5"	"0.5"	"0.5"	"0.5"	"0.5"	"0.5"	"."	"."	"."	"1"	"1"	"1"	"1"	"1"	"1"	"1"	"1"	"1"	"1"	"1"	"1"	"1"	"1"	"1"	"1"	"1"	"1"	"1"	"1"	"1"	"1"	"1"	"1"	"1"	"1"	"1"	"1"	"1"	"1"	"1"	"1"	"1"	"1"	"1"	"1"	"1"	"1"	"1"	"1"	"1"	"1"	"1"	"1"	"1"	"1"	"1"	"1"	"1"	"1"	"1"	"1"	"1"	"1"	"1"	"1"	"1"	"1"	"."	"."	"."	"0.5"	"0.5"	"0.5"	"0.5"	"0.5"	"0.5"	"0.5"	"0.5"	"0.5"	"0.5"	"0.5"	"0.5"	"0.5"	"0.5"	"0.5"	"0.5"	"0.5"	"0.5"	"0.5"	"0.5"	"0.5"	"0.5"	"0.5"	"0.5"	"0.5"	"0.5"	""	""	""	""	""	""	""	""	""	""	""	""	""	""	""	""	""	""	""	""	""	""	""	""	""	""	""	""	""	""	""	""	""	""	""	""	NA	NA	NA	NA	NA	700	NA	0	0	2500	0	2500	"sol-ichart-v1-processed"	"./"	"V1"	"yes"	NA	"adult"	NA	"shoe"	NA	"known_sign"	40	"include"	"Adults"	"C_T"	"1"	3	3	700	3	52	700	1	52	0.856164383561644	TRUE	TRUE	TRUE
"30004"	349	"F"	"sol-inc-1"	43	""	"cookie3.pct"	""	"juice3.pct"	"r"	"juice3.pct"	"Vanilla"	"D"	6	600	2165	6000	"0.5"	"0.5"	"0.5"	"0.5"	"0.5"	"0.5"	"0.5"	"0.5"	"0.5"	"0.5"	"0.5"	"0.5"	"0.5"	"0.5"	"0.5"	"0.5"	"0.5"	"0.5"	"."	"."	"."	"."	"."	"."	"1"	"1"	"1"	"1"	"1"	"1"	"1"	"1"	"1"	"1"	"1"	"1"	"1"	"1"	"1"	"1"	"1"	"1"	"1"	"1"	"1"	"1"	"1"	"1"	"1"	"1"	"1"	"1"	"1"	"1"	"1"	"1"	"1"	"1"	"1"	"1"	"1"	"1"	"1"	"1"	"1"	"1"	"1"	"1"	"1"	"1"	"1"	"1"	"1"	"1"	"1"	"."	"."	"."	"."	"."	"0.5"	"0.5"	"0.5"	"0.5"	"0.5"	"0.5"	"0.5"	"0.5"	"0.5"	"0.5"	"0.5"	"0.5"	"0.5"	"0.5"	"0.5"	"0.5"	"0.5"	"0.5"	"0.5"	"0.5"	"0.5"	"0.5"	"0.5"	"0.5"	"0.5"	"0.5"	"0.5"	"0.5"	"0.5"	"0.5"	""	""	""	""	""	""	""	""	""	""	""	""	""	""	""	""	""	""	""	""	""	""	""	""	""	""	""	""	""	""	""	""	""	""	""	""	""	NA	NA	NA	NA	NA	600	NA	0	0	2500	0	2500	"sol-ichart-v1-processed"	"./"	"V1"	"yes"	NA	"adult"	NA	"juice"	NA	"known_sign"	40	"include"	"Adults"	"C_T"	"1"	6	7	600	6	51	600	2	51	0.869565217391304	TRUE	TRUE	TRUE
"30005"	575	"M"	"sol-inc-1-prime-nounon"	2	""	"teddy1.pct"	""	"doll1L.jpg"	"r"	"doll1L.jpg"	"Vanilla"	"D"	2	767	2066	8000	"0.5"	"0.5"	"0.5"	"0.5"	"0.5"	"0.5"	"0.5"	"0.5"	"0.5"	"0.5"	"0.5"	"0.5"	"0.5"	"0.5"	"0.5"	"0.5"	"0.5"	"0.5"	"0.5"	"0.5"	"0.5"	"0.5"	"0.5"	"."	"."	"0"	"0"	"0"	"0"	"0"	"."	"."	"1"	"1"	"1"	"1"	"1"	"1"	"1"	"1"	"1"	"1"	"1"	"1"	"1"	"1"	"1"	"1"	"1"	"1"	"1"	"1"	"1"	"1"	"1"	"1"	"1"	"1"	"1"	"1"	"1"	"1"	"1"	"1"	"1"	"1"	"1"	"1"	"1"	"1"	"1"	"1"	"1"	"1"	"1"	"1"	"1"	"1"	"1"	"1"	"1"	"1"	"1"	"1"	"1"	"1"	"1"	"1"	"1"	"1"	"1"	"1"	"1"	"1"	"1"	"1"	"1"	"1"	"1"	"1"	"1"	"1"	"1"	"1"	"1"	"1"	"1"	"1"	"1"	"1"	"1"	""	""	""	""	""	""	""	""	""	""	""	""	""	""	""	""	""	""	""	""	""	""	""	""	""	""	""	""	""	""	""	""	""	""	""	""	NA	NA	NA	NA	NA	767	NA	0	0	2500	0	2500	"sol-ichart-v1-processed"	"./"	"V1"	"yes"	NA	"adult"	NA	"doll"	NA	"known_sign"	36	"include"	"Adults"	"C_D"	"1"	2	4	767	2	44	1000	2	5	0.770833333333333	TRUE	TRUE	TRUE
"30005"	575	"M"	"sol-inc-1-prime-nounon"	3	""	"bluecup.pct"	""	"redsockL.pct"	"r"	"redsockL.pct"	"Vanilla"	"D"	2	633	3165	8000	"0.5"	"0.5"	"0.5"	"0.5"	"0.5"	"0.5"	"0.5"	"0.5"	"0.5"	"0.5"	"0.5"	"0.5"	"0.5"	"0.5"	"0.5"	"0.5"	"0.5"	"0.5"	"0.5"	"."	"."	"1"	"1"	"1"	"1"	"1"	"1"	"1"	"1"	"1"	"1"	"1"	"1"	"1"	"1"	"1"	"1"	"1"	"1"	"1"	"1"	"1"	"1"	"1"	"1"	"1"	"1"	"1"	"1"	"1"	"1"	"1"	"1"	"1"	"1"	"1"	"1"	"1"	"1"	"1"	"1"	"1"	"1"	"1"	"1"	"1"	"1"	"1"	"1"	"1"	"1"	"1"	"1"	"1"	"1"	"1"	"1"	"1"	"1"	"1"	"1"	"1"	"1"	"1"	"1"	"1"	"1"	"1"	"1"	"1"	"1"	"1"	"1"	"1"	"1"	"1"	"1"	"1"	"1"	"1"	"1"	"1"	"1"	"1"	"1"	"1"	"1"	"1"	"1"	"1"	"1"	"1"	""	""	""	""	""	""	""	""	""	""	""	""	""	""	""	""	""	""	""	""	""	""	""	""	""	""	""	""	""	""	""	""	""	""	""	NA	NA	NA	NA	NA	633	NA	0	0	2500	0	2500	"sol-ichart-v1-processed"	"./"	"V1"	"yes"	NA	"adult"	NA	"sock"	NA	"known_sign"	36	"include"	"Adults"	"C_T"	"1"	2	2	633	2	55	633	1	55	0.871621621621622	TRUE	TRUE	TRUE
"30005"	575	"M"	"sol-inc-1-prime-nounon"	4	""	"juice1.pct"	""	"cookie1.pct"	"l"	"juice1.pct"	"Vanilla"	"D"	2	767	2165	8000	"0.5"	"0.5"	"0.5"	"0.5"	"0.5"	"0.5"	"0.5"	"0.5"	"0.5"	"0.5"	"0.5"	"0.5"	"0.5"	"0.5"	"0.5"	"0.5"	"0.5"	"0.5"	"0.5"	"0.5"	"0.5"	"0.5"	"0.5"	"."	"."	"0"	"0"	"0"	"0"	"."	"."	"."	"1"	"1"	"1"	"1"	"1"	"1"	"1"	"1"	"1"	"1"	"1"	"1"	"1"	"1"	"1"	"1"	"1"	"1"	"1"	"1"	"1"	"1"	"1"	"1"	"1"	"1"	"1"	"1"	"1"	"1"	"1"	"1"	"1"	"1"	"1"	"1"	"1"	"1"	"1"	"1"	"1"	"1"	"1"	"1"	"1"	"1"	"1"	"1"	"1"	"1"	"1"	"1"	"1"	"1"	"1"	"1"	"1"	"1"	"1"	"1"	"1"	"1"	"1"	"1"	"1"	"1"	"1"	"1"	"1"	"1"	"1"	"1"	"1"	"1"	"1"	"1"	""	""	""	""	""	""	""	""	""	""	""	""	""	""	""	""	""	""	""	""	""	""	""	""	""	""	""	""	""	""	""	""	""	""	""	""	""	""	""	NA	NA	NA	NA	NA	767	NA	0	0	2500	0	2500	"sol-ichart-v1-processed"	"./"	"V1"	"yes"	NA	"adult"	NA	"juice"	NA	"known_sign"	36	"include"	"Adults"	"C_D"	"1"	3	5	967	2	44	967	2	4	0.78169014084507	TRUE	TRUE	TRUE
"30005"	575	"M"	"sol-inc-1-prime-nounon"	5	""	"cookie2.pct"	""	"juice2.pct"	"l"	"cookie2.pct"	"Vanilla"	"D"	2	633	2330	8000	"0.5"	"0.5"	"0.5"	"0.5"	"0.5"	"0.5"	"0.5"	"0.5"	"0.5"	"0.5"	"0.5"	"0.5"	"0.5"	"0.5"	"0.5"	"0.5"	"0.5"	"0.5"	"0.5"	"."	"."	"1"	"1"	"1"	"1"	"1"	"1"	"1"	"1"	"1"	"1"	"1"	"1"	"1"	"1"	"1"	"1"	"1"	"1"	"1"	"1"	"1"	"1"	"1"	"1"	"1"	"1"	"1"	"1"	"1"	"1"	"1"	"1"	"1"	"1"	"1"	"1"	"1"	"1"	"1"	"1"	"1"	"1"	"1"	"1"	"1"	"1"	"1"	"1"	"1"	"1"	"1"	"1"	"1"	"1"	"1"	"1"	"1"	"1"	"1"	"1"	"1"	"1"	"1"	"1"	"1"	"1"	"1"	"1"	"1"	"1"	"1"	"1"	"1"	"1"	"1"	"1"	"1"	"1"	"1"	"1"	"1"	"1"	"1"	"1"	"1"	"1"	"1"	"1"	"1"	"1"	"1"	"1"	"1"	"1"	""	""	""	""	""	""	""	""	""	""	""	""	""	""	""	""	""	""	""	""	""	""	""	""	""	""	""	""	""	""	""	""	NA	NA	NA	NA	NA	633	NA	0	0	2500	0	2500	"sol-ichart-v1-processed"	"./"	"V1"	"yes"	NA	"adult"	NA	"cookie"	NA	"known_sign"	36	"include"	"Adults"	"C_T"	"1"	2	2	633	2	55	633	1	55	0.871621621621622	TRUE	TRUE	TRUE
"30005"	575	"M"	"sol-inc-1-prime-nounon"	6	""	"redsockR.pct"	""	"redcup.pct"	"r"	"redcup.pct"	"Vanilla"	"D"	2	633	3594	8000	"0.5"	"0.5"	"0.5"	"0.5"	"0.5"	"0.5"	"0.5"	"0.5"	"0.5"	"0.5"	"0.5"	"0.5"	"0.5"	"0.5"	"0.5"	"0.5"	"0.5"	"0.5"	"0.5"	"."	"."	"1"	"1"	"1"	"1"	"1"	"1"	"1"	"1"	"1"	"1"	"1"	"1"	"1"	"1"	"1"	"1"	"1"	"1"	"1"	"1"	"1"	"1"	"1"	"1"	"1"	"1"	"1"	"1"	"1"	"1"	"1"	"1"	"1"	"1"	"1"	"1"	"1"	"1"	"1"	"1"	"1"	"1"	"1"	"1"	"1"	"1"	"1"	"1"	"1"	"1"	"1"	"1"	"1"	"1"	"1"	"1"	"1"	"1"	"1"	"1"	"1"	"1"	"1"	"1"	"1"	"1"	"1"	"1"	"1"	"1"	"1"	"1"	"1"	"1"	"1"	"1"	"1"	"1"	"1"	"1"	"1"	"1"	"1"	"1"	"1"	"1"	"1"	"1"	"1"	"1"	"1"	"1"	"1"	"1"	"1"	"1"	"1"	"1"	"1"	"1"	"1"	"1"	"1"	"1"	"1"	"1"	"1"	"1"	"1"	"1"	"1"	"1"	"1"	"1"	"1"	"1"	"1"	"1"	"1"	"1"	"1"	"1"	"1"	"1"	"1"	"1"	NA	NA	NA	NA	NA	633	NA	0	0	2500	0	2500	"sol-ichart-v1-processed"	"./"	"V1"	"yes"	NA	"adult"	NA	"cup"	NA	"known_sign"	36	"include"	"Adults"	"C_T"	"1"	2	2	633	2	55	633	1	55	0.871621621621622	TRUE	TRUE	TRUE
"30005"	575	"M"	"sol-inc-1-prime-nounon"	7	""	"juice2.pct"	""	"cookie2.pct"	"r"	"cookie2.pct"	"Vanilla"	"D"	1	533	2429	8000	"0.5"	"0.5"	"0.5"	"0.5"	"0.5"	"0.5"	"0.5"	"0.5"	"0.5"	"0.5"	"0.5"	"0.5"	"0.5"	"0.5"	"0.5"	"0.5"	"."	"1"	"1"	"1"	"1"	"1"	"1"	"1"	"1"	"1"	"1"	"1"	"1"	"1"	"1"	"1"	"1"	"1"	"1"	"1"	"1"	"1"	"1"	"1"	"1"	"1"	"1"	"1"	"1"	"1"	"1"	"1"	"1"	"1"	"1"	"1"	"1"	"1"	"1"	"1"	"1"	"1"	"1"	"1"	"1"	"1"	"1"	"1"	"1"	"1"	"1"	"1"	"1"	"1"	"1"	"1"	"1"	"1"	"1"	"1"	"1"	"1"	"1"	"1"	"1"	"1"	"1"	"1"	"1"	"1"	"1"	"1"	"1"	"1"	"1"	"1"	"1"	"."	"0.5"	"0.5"	"0.5"	"0.5"	"0.5"	"0.5"	"0.5"	"0.5"	"0.5"	"0.5"	"0.5"	"0.5"	"0.5"	"0.5"	"0.5"	"0.5"	"0.5"	"0.5"	"0.5"	"0.5"	""	""	""	""	""	""	""	""	""	""	""	""	""	""	""	""	""	""	""	""	""	""	""	""	""	""	""	""	""	""	""	""	""	NA	NA	NA	NA	NA	533	NA	0	0	2500	0	2500	"sol-ichart-v1-processed"	"./"	"V1"	"yes"	NA	"adult"	NA	"cookie"	NA	"known_sign"	36	"include"	"Adults"	"C_T"	"1"	1	1	533	1	59	533	1	59	0.893333333333333	TRUE	TRUE	TRUE
"30005"	575	"M"	"sol-inc-1-prime-nounon"	8	""	"blueball.jpg"	""	"blueshoeL.pct"	"l"	"blueball.jpg"	"Vanilla"	"D"	2	633	3066	8000	"0.5"	"0.5"	"0.5"	"0.5"	"0.5"	"0.5"	"0.5"	"0.5"	"0.5"	"0.5"	"0.5"	"0.5"	"0.5"	"0.5"	"0.5"	"0.5"	"0.5"	"0.5"	"0.5"	"."	"."	"1"	"1"	"1"	"1"	"1"	"1"	"1"	"1"	"1"	"1"	"1"	"1"	"1"	"1"	"1"	"1"	"1"	"1"	"1"	"1"	"1"	"1"	"1"	"1"	"1"	"1"	"1"	"1"	"1"	"1"	"1"	"1"	"1"	"1"	"1"	"1"	"1"	"1"	"1"	"1"	"1"	"1"	"1"	"1"	"1"	"1"	"1"	"1"	"1"	"1"	"1"	"1"	"1"	"1"	"1"	"1"	"1"	"1"	"1"	"1"	"1"	"1"	"1"	"1"	"1"	"1"	"1"	"1"	"1"	"1"	"1"	"1"	"1"	"1"	"1"	"1"	"1"	"1"	"1"	"1"	"1"	"1"	"1"	"1"	"1"	"1"	"1"	"1"	"1"	"1"	"1"	"1"	"1"	"1"	"1"	"1"	""	""	""	""	""	""	""	""	""	""	""	""	""	""	""	""	""	""	""	""	""	""	""	""	""	""	""	""	""	""	NA	NA	NA	NA	NA	633	NA	0	0	2500	0	2500	"sol-ichart-v1-processed"	"./"	"V1"	"yes"	NA	"adult"	NA	"ball"	NA	"known_sign"	36	"include"	"Adults"	"C_T"	"1"	2	2	633	2	55	633	1	55	0.871621621621622	TRUE	TRUE	TRUE
"30005"	575	"M"	"sol-inc-1-prime-nounon"	9	""	"kitty2R.pct"	""	"birdy1L.pct"	"r"	"birdy1L.pct"	"Vanilla"	"D"	2	700	2000	8000	"0.5"	"0.5"	"0.5"	"0.5"	"0.5"	"0.5"	"0.5"	"0.5"	"0.5"	"0.5"	"0.5"	"0.5"	"0.5"	"0.5"	"0.5"	"0.5"	"0.5"	"0.5"	"0.5"	"0.5"	"0.5"	"."	"."	"1"	"1"	"1"	"1"	"1"	"1"	"1"	"1"	"1"	"1"	"1"	"1"	"1"	"1"	"1"	"1"	"1"	"1"	"1"	"1"	"1"	"1"	"1"	"1"	"1"	"1"	"1"	"1"	"1"	"1"	"1"	"1"	"1"	"1"	"1"	"1"	"1"	"1"	"1"	"1"	"1"	"1"	"1"	"1"	"1"	"1"	"1"	"1"	"1"	"1"	"1"	"1"	"1"	"1"	"1"	"1"	"1"	"1"	"1"	"1"	"1"	"1"	"1"	"1"	"1"	"1"	"1"	"1"	"1"	"1"	"1"	"1"	"1"	"1"	""	""	""	""	""	""	""	""	""	""	""	""	""	""	""	""	""	""	""	""	""	""	""	""	""	""	""	""	""	""	""	""	""	""	""	""	""	""	""	""	""	""	""	""	""	""	""	""	""	""	NA	NA	NA	NA	NA	700	NA	0	0	2500	0	2500	"sol-ichart-v1-processed"	"./"	"V1"	"yes"	NA	"adult"	NA	"birdy"	NA	"known_sign"	36	"include"	"Adults"	"C_T"	"1"	2	2	700	2	53	700	1	53	0.858108108108108	TRUE	TRUE	TRUE
"30005"	575	"M"	"sol-inc-1-prime-nounon"	10	""	"bluesockR.pct"	""	"redcup.pct"	"l"	"bluesockR.pct"	"Vanilla"	"D"	2	400	3561	8000	"0.5"	"0.5"	"0.5"	"0.5"	"0.5"	"0.5"	"0.5"	"0.5"	"0.5"	"0.5"	"0.5"	"0.5"	"."	"."	"1"	"1"	"1"	"1"	"1"	"1"	"1"	"1"	"1"	"1"	"1"	"1"	"1"	"1"	"1"	"1"	"1"	"1"	"1"	"1"	"1"	"1"	"1"	"1"	"1"	"1"	"1"	"1"	"1"	"1"	"1"	"1"	"1"	"1"	"1"	"1"	"1"	"1"	"1"	"1"	"1"	"1"	"1"	"1"	"1"	"1"	"1"	"1"	"1"	"1"	"1"	"1"	"1"	"1"	"1"	"1"	"1"	"1"	"1"	"1"	"1"	"1"	"1"	"1"	"1"	"1"	"1"	"1"	"1"	"1"	"1"	"1"	"1"	"1"	"1"	"1"	"1"	"1"	"1"	"1"	"1"	"1"	"1"	"1"	"1"	"1"	"1"	"1"	"1"	"1"	"1"	"1"	"1"	"1"	"1"	"1"	"1"	"1"	"1"	"1"	"1"	"1"	"1"	"1"	"1"	"1"	"1"	"1"	""	""	""	""	""	""	""	""	""	""	""	""	""	""	""	""	""	""	""	""	""	""	""	""	""	NA	NA	NA	NA	NA	400	NA	0	0	2500	0	2500	"sol-ichart-v1-processed"	"./"	"V1"	"yes"	NA	"adult"	NA	"sock"	NA	"known_sign"	36	"include"	"Adults"	"C_T"	"1"	2	2	400	2	62	400	1	62	0.918918918918919	TRUE	FALSE	TRUE
"30005"	575	"M"	"sol-inc-1-prime-nounon"	11	""	"juice3.pct"	""	"cookie3.pct"	"l"	"juice3.pct"	"Vanilla"	"D"	2	733	2330	8000	"0.5"	"0.5"	"0.5"	"0.5"	"0.5"	"0.5"	"0.5"	"0.5"	"0.5"	"0.5"	"0.5"	"0.5"	"0.5"	"0.5"	"0.5"	"0.5"	"0.5"	"0.5"	"0.5"	"0.5"	"0.5"	"0.5"	"."	"."	"1"	"1"	"1"	"1"	"1"	"1"	"1"	"1"	"1"	"1"	"1"	"1"	"1"	"1"	"1"	"1"	"1"	"1"	"1"	"1"	"1"	"1"	"1"	"1"	"1"	"1"	"1"	"1"	"1"	"1"	"1"	"1"	"1"	"1"	"1"	"1"	"1"	"1"	"1"	"1"	"1"	"1"	"1"	"1"	"1"	"1"	"1"	"1"	"1"	"1"	"1"	"1"	"1"	"1"	"1"	"1"	"1"	"1"	"1"	"1"	"1"	"1"	"1"	"1"	"1"	"1"	""	""	""	""	""	""	""	""	""	""	""	""	""	""	""	""	""	""	""	""	""	""	""	""	""	""	""	""	""	""	""	""	""	""	""	""	""	""	""	""	""	""	""	""	""	""	""	""	""	""	""	""	""	""	""	""	""	NA	NA	NA	NA	NA	733	NA	0	0	2500	0	2500	"sol-ichart-v1-processed"	"./"	"V1"	"yes"	NA	"adult"	NA	"juice"	NA	"known_sign"	36	"include"	"Adults"	"C_T"	"1"	2	2	733	2	52	733	1	52	0.851351351351351	TRUE	TRUE	TRUE
"30005"	575	"M"	"sol-inc-1-prime-nounon"	12	""	"redball.pct"	""	"blueshoeL.pct"	"l"	"redball.pct"	"Vanilla"	"D"	2	700	3033	8000	"0.5"	"0.5"	"0.5"	"0.5"	"0.5"	"0.5"	"0.5"	"0.5"	"0.5"	"0.5"	"0.5"	"0.5"	"0.5"	"0.5"	"0.5"	"0.5"	"0.5"	"0.5"	"0.5"	"0.5"	"0.5"	"."	"."	"1"	"1"	"1"	"1"	"1"	"1"	"1"	"1"	"1"	"1"	"1"	"1"	"1"	"1"	"1"	"1"	"1"	"1"	"1"	"1"	"1"	"1"	"1"	"1"	"1"	"1"	"1"	"1"	"1"	"1"	"1"	"1"	"1"	"1"	"1"	"1"	"1"	"1"	"1"	"1"	"1"	"1"	"1"	"1"	"1"	"1"	"1"	"1"	"1"	"1"	"1"	"1"	"1"	"1"	"1"	"1"	"1"	"1"	"1"	"1"	"1"	"1"	"1"	"1"	"1"	"1"	"1"	"1"	"1"	"1"	"1"	"1"	"1"	"1"	"1"	"1"	"1"	"1"	"1"	"1"	"1"	"1"	"1"	"1"	"1"	"1"	"1"	"1"	"1"	"1"	"1"	"1"	"1"	"1"	"1"	"1"	"1"	"1"	"1"	"1"	"1"	"1"	"1"	"1"	"1"	"1"	"1"	"1"	"1"	""	""	""	""	""	""	""	""	""	""	""	""	""	""	""	NA	NA	NA	NA	NA	700	NA	0	0	2500	0	2500	"sol-ichart-v1-processed"	"./"	"V1"	"yes"	NA	"adult"	NA	"ball"	NA	"known_sign"	36	"include"	"Adults"	"C_T"	"1"	2	2	700	2	53	700	1	53	0.858108108108108	TRUE	TRUE	TRUE
"30005"	575	"M"	"sol-inc-1-prime-nounon"	13	""	"juice1.pct"	""	"cookie1.pct"	"r"	"cookie1.pct"	"Vanilla"	"D"	2	567	2330	8000	"0.5"	"0.5"	"0.5"	"0.5"	"0.5"	"0.5"	"0.5"	"0.5"	"0.5"	"0.5"	"0.5"	"0.5"	"0.5"	"0.5"	"0.5"	"0.5"	"0.5"	"."	"."	"1"	"1"	"1"	"1"	"1"	"1"	"1"	"1"	"1"	"1"	"1"	"1"	"1"	"1"	"1"	"1"	"1"	"1"	"1"	"1"	"1"	"1"	"1"	"1"	"1"	"1"	"1"	"1"	"1"	"1"	"1"	"1"	"1"	"1"	"1"	"1"	"1"	"1"	"1"	"1"	"1"	"1"	"1"	"1"	"1"	"1"	"1"	"1"	"1"	"1"	"1"	"1"	"1"	"1"	"1"	"1"	"1"	"1"	"1"	"1"	"1"	"1"	"1"	"1"	"1"	"1"	"1"	"1"	"1"	"1"	"1"	"1"	"1"	"1"	"1"	"1"	"1"	"1"	"1"	"1"	"1"	"1"	"1"	"1"	"1"	"1"	"1"	"1"	"1"	"1"	"1"	"1"	"1"	"1"	"1"	"1"	""	""	""	""	""	""	""	""	""	""	""	""	""	""	""	""	""	""	""	""	""	""	""	""	""	""	""	""	""	""	""	""	NA	NA	NA	NA	NA	567	NA	0	0	2500	0	2500	"sol-ichart-v1-processed"	"./"	"V1"	"yes"	NA	"adult"	NA	"cookie"	NA	"known_sign"	36	"include"	"Adults"	"C_T"	"1"	2	2	567	2	57	567	1	57	0.885135135135135	TRUE	TRUE	TRUE
"30005"	575	"M"	"sol-inc-1-prime-nounon"	14	""	"cookie1.pct"	""	"juice1.pct"	"r"	"juice1.pct"	"Vanilla"	"D"	2	600	2165	8000	"0.5"	"0.5"	"0.5"	"0.5"	"0.5"	"0.5"	"0.5"	"0.5"	"0.5"	"0.5"	"0.5"	"0.5"	"0.5"	"0.5"	"0.5"	"0.5"	"0.5"	"0.5"	"."	"."	"1"	"1"	"1"	"1"	"1"	"1"	"1"	"1"	"1"	"1"	"1"	"1"	"1"	"1"	"1"	"1"	"1"	"1"	"1"	"1"	"1"	"1"	"1"	"1"	"1"	"1"	"1"	"1"	"1"	"1"	"1"	"1"	"1"	"1"	"1"	"1"	"1"	"1"	"1"	"1"	"1"	"1"	"1"	"1"	"1"	"1"	"1"	"1"	"1"	"1"	"1"	"1"	"1"	"1"	"1"	"1"	"1"	"1"	"1"	"1"	"1"	"1"	"1"	"1"	"1"	"1"	"1"	"1"	"1"	"1"	"1"	"1"	"1"	"1"	"1"	"1"	"1"	"1"	"1"	"1"	"1"	"1"	"1"	"1"	"1"	"1"	"1"	"1"	"1"	""	""	""	""	""	""	""	""	""	""	""	""	""	""	""	""	""	""	""	""	""	""	""	""	""	""	""	""	""	""	""	""	""	""	""	""	""	""	NA	NA	NA	NA	NA	600	NA	0	0	2500	0	2500	"sol-ichart-v1-processed"	"./"	"V1"	"yes"	NA	"adult"	NA	"juice"	NA	"known_sign"	36	"include"	"Adults"	"C_T"	"1"	2	2	600	2	56	600	1	56	0.878378378378378	TRUE	TRUE	TRUE
"30005"	575	"M"	"sol-inc-1-prime-nounon"	15	""	"bluecup.pct"	""	"redsockL.pct"	"l"	"bluecup.pct"	"Vanilla"	"D"	3	800	4330	8000	"0.5"	"0.5"	"0.5"	"0.5"	"0.5"	"0.5"	"0.5"	"0.5"	"0.5"	"0.5"	"0.5"	"0.5"	"0.5"	"0.5"	"0.5"	"0.5"	"0.5"	"0.5"	"0.5"	"0.5"	"0.5"	"0.5"	"0.5"	"0.5"	"."	"."	"."	"1"	"1"	"1"	"1"	"1"	"1"	"1"	"1"	"1"	"1"	"1"	"1"	"1"	"1"	"1"	"1"	"1"	"1"	"1"	"1"	"1"	"1"	"1"	"1"	"1"	"1"	"1"	"1"	"1"	"1"	"1"	"1"	"1"	"1"	"1"	"1"	"1"	"1"	"1"	"1"	"1"	"1"	"1"	"1"	"1"	"1"	"1"	"1"	"1"	"1"	"1"	"1"	"1"	"1"	"1"	"1"	"1"	"1"	"1"	"1"	"1"	"1"	"1"	"1"	"1"	"1"	"1"	"1"	"1"	"1"	"1"	"1"	"1"	"1"	"1"	"1"	"1"	"1"	"1"	"1"	"1"	"1"	"1"	"1"	"1"	"1"	"1"	"1"	"1"	"1"	"1"	"1"	"1"	"1"	"1"	"1"	"1"	"1"	"1"	"1"	"1"	"1"	"1"	"1"	"1"	"1"	"1"	""	""	""	""	""	""	""	""	""	""	""	""	""	NA	NA	NA	NA	NA	800	NA	0	0	2500	0	2500	"sol-ichart-v1-processed"	"./"	"V1"	"yes"	NA	"adult"	NA	"cup"	NA	"known_sign"	36	"include"	"Adults"	"C_T"	"1"	3	3	800	3	49	800	1	49	0.835616438356164	TRUE	TRUE	TRUE
"30005"	575	"M"	"sol-inc-1-prime-nounon"	16	""	"redshoeR.pct"	""	"redball.pct"	"l"	"redshoeR.pct"	"Vanilla"	"D"	2	600	3231	8000	"0.5"	"0.5"	"0.5"	"0.5"	"0.5"	"0.5"	"0.5"	"0.5"	"0.5"	"0.5"	"0.5"	"0.5"	"0.5"	"0.5"	"0.5"	"0.5"	"0.5"	"0.5"	"."	"."	"1"	"1"	"1"	"1"	"1"	"1"	"1"	"1"	"1"	"1"	"1"	"1"	"1"	"1"	"1"	"1"	"1"	"1"	"1"	"1"	"1"	"1"	"1"	"1"	"1"	"1"	"1"	"1"	"1"	"1"	"1"	"1"	"1"	"1"	"1"	"1"	"1"	"1"	"1"	"1"	"1"	"1"	"1"	"1"	"1"	"1"	"1"	"1"	"1"	"1"	"1"	"1"	"1"	"1"	"1"	"1"	"1"	"1"	"1"	"1"	"1"	"1"	"1"	"1"	"1"	"1"	"1"	"1"	"1"	"1"	"1"	"1"	"1"	"1"	"1"	"1"	"1"	"1"	"1"	"1"	"1"	"1"	"1"	"1"	"1"	"1"	"1"	"1"	"1"	"1"	""	""	""	""	""	""	""	""	""	""	""	""	""	""	""	""	""	""	""	""	""	""	""	""	""	""	""	""	""	""	""	""	""	""	""	""	""	NA	NA	NA	NA	NA	600	NA	0	0	2500	0	2500	"sol-ichart-v1-processed"	"./"	"V1"	"yes"	NA	"adult"	NA	"shoe"	NA	"known_sign"	36	"include"	"Adults"	"C_T"	"1"	2	2	600	2	56	600	1	56	0.878378378378378	TRUE	TRUE	TRUE
"30005"	575	"M"	"sol-inc-1-prime-nounon"	17	""	"birdy3R.pct"	""	"kitty2L.pct"	"r"	"kitty2L.pct"	"Vanilla"	"D"	2	667	2297	8000	"0.5"	"0.5"	"0.5"	"0.5"	"0.5"	"0.5"	"0.5"	"0.5"	"0.5"	"0.5"	"0.5"	"0.5"	"0.5"	"0.5"	"0.5"	"0.5"	"0.5"	"0.5"	"0.5"	"0.5"	"."	"."	"1"	"1"	"1"	"1"	"1"	"1"	"1"	"1"	"1"	"1"	"1"	"1"	"1"	"1"	"1"	"1"	"1"	"1"	"1"	"1"	"1"	"1"	"1"	"1"	"1"	"1"	"1"	"1"	"1"	"1"	"1"	"1"	"1"	"1"	"1"	"1"	"1"	"1"	"1"	"1"	"1"	"1"	"1"	"1"	"1"	"1"	"1"	"1"	"1"	"1"	"1"	"1"	"1"	"1"	"1"	"1"	"1"	"1"	"1"	"1"	"1"	"1"	"1"	"1"	"1"	"1"	"1"	"1"	"1"	"1"	"1"	"1"	"1"	"1"	"1"	"1"	"1"	"1"	"1"	"1"	"1"	"1"	"1"	"1"	"1"	"1"	"1"	"1"	"1"	"1"	"1"	"1"	"1"	"1"	"1"	"1"	"1"	"1"	"1"	"1"	"1"	"1"	"1"	"1"	"1"	"1"	"1"	"1"	"1"	"1"	"1"	"1"	""	""	""	""	""	""	""	""	""	""	""	""	""	NA	NA	NA	NA	NA	667	NA	0	0	2500	0	2500	"sol-ichart-v1-processed"	"./"	"V1"	"yes"	NA	"adult"	NA	"kitty"	NA	"known_sign"	36	"include"	"Adults"	"C_T"	"1"	2	2	667	2	54	667	1	54	0.864864864864865	TRUE	TRUE	TRUE
"30005"	575	"M"	"sol-inc-1-prime-nounon"	19	""	"blueball.pct"	""	"blueshoeL.pct"	"r"	"blueshoeL.pct"	"Vanilla"	"D"	2	633	2825	8000	"0.5"	"0.5"	"0.5"	"0.5"	"0.5"	"0.5"	"0.5"	"0.5"	"0.5"	"0.5"	"0.5"	"0.5"	"0.5"	"0.5"	"0.5"	"0.5"	"0.5"	"0.5"	"0.5"	"."	"."	"1"	"1"	"1"	"1"	"1"	"1"	"1"	"1"	"1"	"1"	"1"	"1"	"1"	"1"	"1"	"1"	"1"	"1"	"1"	"1"	"1"	"1"	"1"	"1"	"1"	"1"	"1"	"1"	"1"	"1"	"1"	"1"	"1"	"1"	"1"	"1"	"1"	"1"	"1"	"1"	"1"	"1"	"1"	"1"	"1"	"1"	"1"	"1"	"1"	"1"	"1"	"1"	"1"	"1"	"1"	"1"	"1"	"1"	"1"	"1"	"1"	"1"	"1"	"."	"."	"."	"."	"0.5"	"0.5"	"0.5"	"0.5"	"0.5"	"0.5"	"0.5"	"0.5"	"0.5"	"0.5"	"0.5"	"0.5"	"0.5"	"0.5"	"0.5"	"0.5"	"0.5"	"0.5"	"0.5"	"0.5"	"0.5"	"0.5"	"0.5"	"0.5"	"0.5"	"0.5"	"0.5"	"0.5"	"0.5"	"0.5"	"0.5"	"0.5"	"0.5"	"0.5"	"0.5"	"0.5"	""	""	""	""	""	""	""	""	""	""	""	""	""	""	""	""	""	""	""	""	""	""	""	NA	NA	NA	NA	NA	633	NA	0	0	2500	0	2500	"sol-ichart-v1-processed"	"./"	"V1"	"yes"	NA	"adult"	NA	"shoe"	NA	"known_sign"	36	"include"	"Adults"	"C_T"	"1"	2	2	633	2	55	633	1	55	0.871621621621622	TRUE	TRUE	TRUE
"30005"	575	"M"	"sol-inc-1-prime-nounon"	20	""	"bluecup.pct"	""	"bluesockL.pct"	"r"	"bluesockL.pct"	"Vanilla"	"D"	2	667	3561	8000	"0.5"	"0.5"	"0.5"	"0.5"	"0.5"	"0.5"	"0.5"	"0.5"	"0.5"	"0.5"	"0.5"	"0.5"	"0.5"	"0.5"	"0.5"	"0.5"	"0.5"	"0.5"	"0.5"	"0.5"	"."	"."	"1"	"1"	"1"	"1"	"1"	"1"	"1"	"1"	"1"	"1"	"1"	"1"	"1"	"1"	"1"	"1"	"1"	"1"	"1"	"1"	"1"	"1"	"1"	"1"	"1"	"1"	"1"	"1"	"1"	"1"	"1"	"1"	"1"	"1"	"1"	"1"	"1"	"1"	"1"	"1"	"1"	"1"	"1"	"1"	"1"	"1"	"1"	"1"	"1"	"1"	"1"	"1"	"1"	"1"	"1"	"1"	"1"	"1"	"1"	"1"	"1"	"1"	"1"	"1"	"1"	"1"	"1"	"1"	"1"	"1"	"1"	"1"	"1"	"1"	"1"	"1"	"1"	"1"	"1"	"1"	"1"	"1"	"1"	"1"	"1"	"1"	"1"	"1"	"1"	"1"	"1"	"1"	"1"	"1"	"1"	"1"	"1"	"1"	"1"	"1"	"1"	"1"	""	""	""	""	""	""	""	""	""	""	""	""	""	""	""	""	""	""	""	""	""	""	""	NA	NA	NA	NA	NA	667	NA	0	0	2500	0	2500	"sol-ichart-v1-processed"	"./"	"V1"	"yes"	NA	"adult"	NA	"sock"	NA	"known_sign"	36	"include"	"Adults"	"C_T"	"1"	2	2	667	2	54	667	1	54	0.864864864864865	TRUE	TRUE	TRUE
"30005"	575	"M"	"sol-inc-1-prime-nounon"	21	""	"teddy2.pct"	""	"doll2L.pct"	"l"	"teddy2.pct"	"Vanilla"	"D"	2	1100	2099	8000	"0.5"	"0.5"	"0.5"	"0.5"	"0.5"	"0.5"	"0.5"	"0.5"	"0.5"	"0.5"	"0.5"	"0.5"	"0.5"	"0.5"	"0.5"	"0.5"	"0.5"	"0.5"	"0.5"	"0.5"	"0.5"	"0.5"	"0.5"	"0.5"	"0.5"	"0.5"	"0.5"	"0.5"	"0.5"	"0.5"	"0.5"	"0.5"	"0.5"	"."	"."	"1"	"1"	"1"	"1"	"1"	"1"	"1"	"1"	"1"	"1"	"1"	"1"	"1"	"1"	"1"	"1"	"1"	"1"	"1"	"1"	"1"	"1"	"1"	"1"	"1"	"1"	"1"	"1"	"1"	"1"	"1"	"1"	"1"	"1"	"1"	"1"	"1"	"1"	"1"	"1"	"1"	"1"	"1"	"1"	"1"	"1"	"1"	"1"	"1"	"1"	"1"	"1"	"1"	"1"	"1"	"1"	"1"	"1"	"1"	"1"	"1"	"1"	"1"	"1"	"1"	"1"	"1"	"1"	"1"	"1"	"1"	"1"	"1"	"1"	"1"	"1"	"1"	"1"	"1"	"1"	"1"	"1"	"1"	"1"	"1"	"1"	"1"	"1"	"1"	""	""	""	""	""	""	""	""	""	""	""	""	""	""	""	""	""	""	""	""	""	""	""	NA	NA	NA	NA	NA	1100	NA	0	0	2500	0	2500	"sol-ichart-v1-processed"	"./"	"V1"	"yes"	NA	"adult"	NA	"teddy"	NA	"known_sign"	36	"include"	"Adults"	"C_T"	"1"	2	2	1100	2	41	1100	1	41	0.777027027027027	TRUE	TRUE	TRUE
"30005"	575	"M"	"sol-inc-1-prime-nounon"	22	""	"cookie1.pct"	""	"juice1.pct"	"r"	"juice1.pct"	"Vanilla"	"D"	2	800	2165	8000	"0.5"	"0.5"	"0.5"	"0.5"	"0.5"	"0.5"	"0.5"	"0.5"	"0.5"	"0.5"	"0.5"	"0.5"	"0.5"	"0.5"	"0.5"	"0.5"	"0.5"	"0.5"	"0.5"	"0.5"	"0.5"	"0.5"	"0.5"	"0.5"	"."	"."	"1"	"1"	"1"	"1"	"1"	"1"	"1"	"1"	"1"	"1"	"1"	"1"	"1"	"1"	"1"	"1"	"1"	"1"	"1"	"1"	"1"	"1"	"1"	"1"	"1"	"1"	"1"	"1"	"1"	"1"	"1"	"1"	"1"	"1"	"1"	"1"	"1"	"1"	"1"	"1"	"1"	"1"	"1"	"1"	"1"	"1"	"1"	"1"	"1"	"1"	"1"	"1"	"1"	"1"	"1"	"1"	"1"	"1"	"1"	"1"	"1"	"1"	"1"	"1"	"1"	"1"	"1"	"1"	"1"	"1"	"1"	"1"	"1"	"1"	"1"	"1"	"1"	"1"	"1"	"1"	"1"	"1"	""	""	""	""	""	""	""	""	""	""	""	""	""	""	""	""	""	""	""	""	""	""	""	""	""	""	""	""	""	""	""	""	""	""	""	""	""	""	""	NA	NA	NA	NA	NA	800	NA	0	0	2500	0	2500	"sol-ichart-v1-processed"	"./"	"V1"	"yes"	NA	"adult"	NA	"juice"	NA	"known_sign"	36	"include"	"Adults"	"C_T"	"1"	2	2	800	2	50	800	1	50	0.837837837837838	TRUE	TRUE	TRUE
"30005"	575	"M"	"sol-inc-1-prime-nounon"	23	""	"birdy3R.pct"	""	"kitty2L.pct"	"l"	"birdy3R.pct"	"Vanilla"	"D"	2	700	1957	8000	"0.5"	"0.5"	"0.5"	"0.5"	"0.5"	"0.5"	"0.5"	"0.5"	"0.5"	"0.5"	"0.5"	"0.5"	"0.5"	"0.5"	"0.5"	"0.5"	"0.5"	"0.5"	"0.5"	"0.5"	"0.5"	"."	"."	"1"	"1"	"1"	"1"	"1"	"1"	"1"	"1"	"1"	"1"	"1"	"1"	"1"	"1"	"1"	"1"	"1"	"1"	"1"	"1"	"1"	"1"	"1"	"1"	"1"	"1"	"1"	"1"	"1"	"1"	"1"	"1"	"1"	"1"	"1"	"1"	"1"	"1"	"1"	"1"	"1"	"1"	"1"	"1"	"1"	"1"	"1"	"1"	"1"	"1"	"1"	"1"	"1"	"1"	"1"	"1"	"1"	"1"	"1"	"1"	"1"	"1"	"1"	"1"	"1"	"1"	"1"	"1"	"1"	"1"	"1"	"1"	""	""	""	""	""	""	""	""	""	""	""	""	""	""	""	""	""	""	""	""	""	""	""	""	""	""	""	""	""	""	""	""	""	""	""	""	""	""	""	""	""	""	""	""	""	""	""	""	""	""	""	""	NA	NA	NA	NA	NA	700	NA	0	0	2500	0	2500	"sol-ichart-v1-processed"	"./"	"V1"	"yes"	NA	"adult"	NA	"birdy"	NA	"known_sign"	36	"include"	"Adults"	"C_T"	"1"	2	2	700	2	53	700	1	53	0.858108108108108	TRUE	TRUE	TRUE
"30005"	575	"M"	"sol-inc-1-prime-nounon"	24	""	"bluesockR.pct"	""	"redcup.pct"	"r"	"redcup.pct"	"Vanilla"	"D"	2	967	3594	8000	"0.5"	"0.5"	"0.5"	"0.5"	"0.5"	"0.5"	"0.5"	"0.5"	"0.5"	"0.5"	"0.5"	"0.5"	"0.5"	"0.5"	"0.5"	"0.5"	"0.5"	"0.5"	"0.5"	"0.5"	"0.5"	"0.5"	"0.5"	"0.5"	"0.5"	"0.5"	"0.5"	"0.5"	"0.5"	"."	"."	"1"	"1"	"1"	"1"	"1"	"1"	"1"	"1"	"1"	"1"	"1"	"1"	"1"	"1"	"1"	"1"	"1"	"1"	"1"	"1"	"1"	"1"	"1"	"1"	"1"	"1"	"1"	"1"	"1"	"1"	"1"	"1"	"1"	"1"	"1"	"1"	"1"	"1"	"1"	"1"	"1"	"1"	"1"	"1"	"."	"."	"."	"."	"."	"0.5"	"0.5"	"0.5"	"0.5"	"0.5"	"0.5"	"0.5"	"0.5"	"0.5"	"0.5"	"0.5"	"0.5"	"."	"."	"."	"."	"."	"."	"."	"."	"."	"."	"."	"."	"."	"."	"."	"."	"."	"."	"."	"."	"."	"."	"."	"."	"."	"."	"."	"."	"."	"-"	"."	"0.5"	"0.5"	"0.5"	"0.5"	"0.5"	"0.5"	"0.5"	"0.5"	"0.5"	"0.5"	"0.5"	"0.5"	"0.5"	"0.5"	"0.5"	"0.5"	"0.5"	"0.5"	"0.5"	"0.5"	"0.5"	"0.5"	""	""	NA	NA	NA	NA	NA	967	NA	0	0	2500	0	2500	"sol-ichart-v1-processed"	"./"	"V1"	"yes"	NA	"adult"	NA	"cup"	NA	"known_sign"	36	"include"	"Adults"	"C_T"	"1"	2	3	967	2	44	967	2	44	0.801369863013699	TRUE	TRUE	TRUE
"30005"	575	"M"	"sol-inc-1-prime-nounon"	25	""	"juice2.pct"	""	"cookie2.pct"	"r"	"cookie2.pct"	"Vanilla"	"D"	4	2233	2330	8000	"0.5"	"0.5"	"0.5"	"0.5"	"0.5"	"0.5"	"0.5"	"0.5"	"0.5"	"0.5"	"0.5"	"0.5"	"0.5"	"0.5"	"0.5"	"0.5"	"0.5"	"0.5"	"0.5"	"0.5"	"0.5"	"0.5"	"0.5"	"0.5"	"0.5"	"0.5"	"0.5"	"0.5"	"0.5"	"0.5"	"0.5"	"0.5"	"0.5"	"0.5"	"0.5"	"0.5"	"0.5"	"0.5"	"0.5"	"0.5"	"0.5"	"0.5"	"0.5"	"0.5"	"0.5"	"0.5"	"0.5"	"0.5"	"0.5"	"0.5"	"0.5"	"0.5"	"0.5"	"0.5"	"0.5"	"0.5"	"0.5"	"0.5"	"0.5"	"0.5"	"0.5"	"0.5"	"0.5"	"0.5"	"0.5"	"0.5"	"0.5"	"."	"."	"."	"."	"1"	"1"	"1"	"1"	"1"	"1"	"1"	"1"	"1"	"1"	"1"	"1"	"1"	"1"	"1"	"1"	"1"	"1"	"1"	"1"	"1"	"1"	"1"	"1"	"1"	"1"	"1"	"1"	"1"	"1"	"1"	"1"	"1"	"1"	"1"	"1"	"1"	"1"	"1"	"1"	"1"	"1"	"1"	"1"	"1"	""	""	""	""	""	""	""	""	""	""	""	""	""	""	""	""	""	""	""	""	""	""	""	""	""	""	""	""	""	""	""	NA	NA	NA	NA	NA	2233	NA	0	0	2500	0	2500	"sol-ichart-v1-processed"	"./"	"V1"	"yes"	NA	"adult"	NA	"cookie"	NA	"known_sign"	36	"include"	"Adults"	"C_T"	"1"	4	4	2233	4	5	2233	1	5	0.534722222222222	TRUE	FALSE	TRUE
"30005"	575	"M"	"sol-inc-1-prime-nounon"	26	""	"doll1L.pct"	""	"teddy1.pct"	"l"	"doll1L.pct"	"Vanilla"	"D"	2	1100	1924	8000	"0.5"	"0.5"	"0.5"	"0.5"	"0.5"	"0.5"	"0.5"	"0.5"	"0.5"	"0.5"	"0.5"	"0.5"	"0.5"	"0.5"	"0.5"	"0.5"	"0.5"	"0.5"	"0.5"	"0.5"	"0.5"	"0.5"	"0.5"	"0.5"	"0.5"	"0.5"	"0.5"	"0.5"	"0.5"	"0.5"	"0.5"	"0.5"	"0.5"	"."	"."	"1"	"1"	"1"	"1"	"1"	"1"	"1"	"1"	"1"	"1"	"1"	"1"	"1"	"1"	"1"	"1"	"1"	"1"	"1"	"1"	"1"	"1"	"1"	"1"	"1"	"1"	"1"	"1"	"1"	"1"	"1"	"1"	"1"	"1"	"1"	"1"	"1"	"1"	"1"	"1"	"1"	"1"	"1"	"1"	"1"	"1"	"1"	"1"	"1"	"1"	"1"	"1"	"1"	"1"	"1"	"1"	"1"	"1"	"1"	"1"	"1"	"1"	"1"	"1"	"1"	"1"	"1"	"1"	"1"	"1"	"1"	"1"	"1"	"1"	"1"	"1"	"1"	"1"	"1"	"1"	"1"	"1"	"1"	"1"	""	""	""	""	""	""	""	""	""	""	""	""	""	""	""	""	""	""	""	""	""	""	""	""	""	""	""	""	NA	NA	NA	NA	NA	1100	NA	0	0	2500	0	2500	"sol-ichart-v1-processed"	"./"	"V1"	"yes"	NA	"adult"	NA	"doll"	NA	"known_sign"	36	"include"	"Adults"	"C_T"	"1"	2	2	1100	2	41	1100	1	41	0.777027027027027	TRUE	TRUE	TRUE
"30005"	575	"M"	"sol-inc-1-prime-nounon"	27	""	"bluecup.pct"	""	"bluesockL.pct"	"l"	"bluecup.pct"	"Vanilla"	"D"	2	433	4330	8000	"0.5"	"0.5"	"0.5"	"0.5"	"0.5"	"0.5"	"0.5"	"0.5"	"0.5"	"0.5"	"0.5"	"0.5"	"0.5"	"."	"."	"1"	"1"	"1"	"1"	"1"	"1"	"1"	"1"	"1"	"1"	"1"	"1"	"1"	"1"	"1"	"1"	"1"	"1"	"1"	"1"	"1"	"1"	"1"	"1"	"1"	"1"	"1"	"1"	"1"	"1"	"1"	"1"	"1"	"1"	"1"	"1"	"1"	"1"	"1"	"1"	"1"	"1"	"1"	"1"	"1"	"1"	"1"	"1"	"1"	"1"	"1"	"1"	"1"	"1"	"1"	"1"	"1"	"1"	"1"	"1"	"1"	"1"	"1"	"1"	"1"	"1"	"1"	"1"	"1"	"1"	"1"	"1"	"1"	"1"	"1"	"1"	"1"	"1"	"1"	"1"	"1"	"1"	"1"	"1"	"1"	"1"	"1"	"1"	"1"	"1"	"1"	"1"	"1"	"1"	"1"	"1"	"1"	"1"	"1"	"1"	"1"	"1"	"1"	"1"	"1"	"1"	"1"	"1"	"1"	"1"	"1"	"1"	"1"	"1"	"1"	"1"	"1"	"1"	"1"	""	""	""	""	""	""	""	""	""	""	""	""	""	NA	NA	NA	NA	NA	433	NA	0	0	2500	0	2500	"sol-ichart-v1-processed"	"./"	"V1"	"yes"	NA	"adult"	NA	"cup"	NA	"known_sign"	36	"include"	"Adults"	"C_T"	"1"	2	2	433	2	61	433	1	61	0.912162162162162	TRUE	FALSE	TRUE
"30005"	575	"M"	"sol-inc-1-prime-nounon"	28	""	"cookie2.pct"	""	"juice2.pct"	"r"	"juice2.pct"	"Vanilla"	"D"	4	333	2330	8000	"0.5"	"0.5"	"0.5"	"0.5"	"0.5"	"0.5"	"0.5"	"0.5"	"0.5"	"0.5"	"."	"."	"."	"."	"1"	"1"	"1"	"1"	"1"	"1"	"1"	"1"	"1"	"1"	"1"	"1"	"1"	"1"	"1"	"1"	"1"	"1"	"1"	"1"	"1"	"1"	"1"	"1"	"1"	"1"	"1"	"1"	"1"	"1"	"1"	"1"	"1"	"1"	"1"	"1"	"1"	"1"	"1"	"1"	"1"	"1"	"1"	"1"	"1"	"1"	"1"	"1"	"1"	"1"	"1"	"1"	"1"	"1"	"1"	"1"	"1"	"1"	"1"	"1"	"1"	"1"	"1"	"1"	"1"	"1"	"1"	"1"	"1"	"1"	"1"	"1"	"1"	"1"	"1"	"1"	"1"	""	""	""	""	""	""	""	""	""	""	""	""	""	""	""	""	""	""	""	""	""	""	""	""	""	""	""	""	""	""	""	""	""	""	""	""	""	""	""	""	""	""	""	""	""	""	""	""	""	""	""	""	""	""	""	""	NA	NA	NA	NA	NA	333	NA	0	0	2500	0	2500	"sol-ichart-v1-processed"	"./"	"V1"	"yes"	NA	"adult"	NA	"juice"	NA	"known_sign"	36	"include"	"Adults"	"C_T"	"1"	4	4	333	4	62	333	1	62	0.930555555555556	TRUE	FALSE	TRUE
"30005"	575	"M"	"sol-inc-1-prime-nounon"	29	""	"redshoeR.pct"	""	"redball.pct"	"r"	"redball.pct"	"Vanilla"	"D"	3	600	3033	8000	"0.5"	"0.5"	"0.5"	"0.5"	"0.5"	"0.5"	"0.5"	"0.5"	"0.5"	"0.5"	"0.5"	"0.5"	"0.5"	"0.5"	"0.5"	"0.5"	"0.5"	"0.5"	"."	"."	"."	"1"	"1"	"1"	"1"	"1"	"1"	"1"	"1"	"1"	"1"	"1"	"1"	"1"	"1"	"1"	"1"	"1"	"1"	"1"	"1"	"1"	"1"	"1"	"1"	"1"	"1"	"1"	"1"	"1"	"1"	"1"	"1"	"1"	"1"	"1"	"1"	"1"	"1"	"1"	"1"	"1"	"1"	"1"	"1"	"1"	"1"	"1"	"1"	"1"	"1"	"1"	"1"	"1"	"1"	"1"	"1"	"1"	"1"	"1"	"1"	"1"	"1"	"1"	"1"	"1"	"1"	"1"	"1"	"1"	"1"	"1"	"1"	"1"	"1"	"1"	"1"	"1"	"1"	"1"	"1"	"1"	"1"	"1"	"1"	"1"	"1"	"1"	"1"	"1"	"1"	"1"	"1"	"1"	"1"	"1"	"1"	"1"	"1"	"1"	"1"	"1"	"1"	"1"	"1"	"1"	"1"	"1"	"1"	"1"	"1"	""	""	""	""	""	""	""	""	""	""	""	""	""	""	""	""	NA	NA	NA	NA	NA	600	NA	0	0	2500	0	2500	"sol-ichart-v1-processed"	"./"	"V1"	"yes"	NA	"adult"	NA	"ball"	NA	"known_sign"	36	"include"	"Adults"	"C_T"	"1"	3	3	600	3	55	600	1	55	0.876712328767123	TRUE	TRUE	TRUE
"30005"	575	"M"	"sol-inc-1-prime-nounon"	30	""	"cookie1.pct"	""	"juice1.pct"	"l"	"cookie1.pct"	"Vanilla"	"D"	2	400	2429	8000	"0.5"	"0.5"	"0.5"	"0.5"	"0.5"	"0.5"	"0.5"	"0.5"	"0.5"	"0.5"	"0.5"	"0.5"	"."	"."	"1"	"1"	"1"	"1"	"1"	"1"	"1"	"1"	"1"	"1"	"1"	"1"	"1"	"1"	"1"	"1"	"1"	"1"	"1"	"1"	"1"	"1"	"1"	"1"	"1"	"1"	"1"	"1"	"1"	"1"	"1"	"1"	"1"	"1"	"1"	"1"	"1"	"1"	"1"	"1"	"1"	"1"	"1"	"1"	"1"	"1"	"1"	"1"	"1"	"1"	"1"	"1"	"1"	"1"	"1"	"1"	"1"	"1"	"1"	"1"	"1"	"1"	"1"	"1"	"1"	"1"	"1"	"1"	"1"	"1"	"1"	"1"	"1"	"1"	"1"	"1"	"1"	"1"	"1"	"1"	"1"	"1"	"1"	"1"	"1"	"1"	"1"	"1"	"1"	"1"	"1"	"1"	"1"	"1"	"1"	"1"	"1"	"1"	"1"	""	""	""	""	""	""	""	""	""	""	""	""	""	""	""	""	""	""	""	""	""	""	""	""	""	""	""	""	""	""	""	""	""	""	NA	NA	NA	NA	NA	400	NA	0	0	2500	0	2500	"sol-ichart-v1-processed"	"./"	"V1"	"yes"	NA	"adult"	NA	"cookie"	NA	"known_sign"	36	"include"	"Adults"	"C_T"	"1"	2	2	400	2	62	400	1	62	0.918918918918919	TRUE	FALSE	TRUE
"30005"	575	"M"	"sol-inc-1-prime-nounon"	32	""	"cookie3.pct"	""	"juice3.pct"	"l"	"cookie3.pct"	"Vanilla"	"D"	6	667	2330	8000	"0.5"	"0.5"	"0.5"	"0.5"	"0.5"	"0.5"	"0.5"	"0.5"	"0.5"	"0.5"	"0.5"	"0.5"	"0.5"	"0.5"	"0.5"	"0.5"	"0.5"	"0.5"	"0.5"	"0.5"	"."	"."	"."	"."	"."	"."	"1"	"1"	"1"	"1"	"1"	"1"	"1"	"1"	"1"	"1"	"1"	"1"	"1"	"1"	"1"	"1"	"1"	"1"	"1"	"1"	"1"	"1"	"1"	"1"	"1"	"1"	"1"	"1"	"1"	"1"	"1"	"1"	"1"	"1"	"1"	"1"	"1"	"1"	"1"	"1"	"1"	"1"	"1"	"1"	"1"	"1"	"1"	"1"	"1"	"1"	"1"	"1"	"1"	"1"	"1"	"1"	"1"	"1"	"1"	"1"	"1"	"1"	"1"	"1"	"1"	"1"	"1"	"1"	"1"	"1"	"1"	"1"	"1"	"1"	"1"	"1"	"1"	"1"	"1"	"1"	"1"	"1"	"1"	"1"	"1"	"1"	"1"	"1"	"1"	"1"	"1"	""	""	""	""	""	""	""	""	""	""	""	""	""	""	""	""	""	""	""	""	""	""	""	""	""	""	""	""	""	""	NA	NA	NA	NA	NA	667	NA	0	0	2500	0	2500	"sol-ichart-v1-processed"	"./"	"V1"	"yes"	NA	"adult"	NA	"cookie"	NA	"known_sign"	36	"include"	"Adults"	"C_T"	"1"	6	6	667	6	50	667	1	50	0.857142857142857	TRUE	TRUE	TRUE
"30005"	575	"M"	"sol-inc-1-prime-nounon"	33	""	"redshoeR.pct"	""	"blueball.pct"	"r"	"blueball.pct"	"Vanilla"	"D"	2	700	3066	8000	"0.5"	"0.5"	"0.5"	"0.5"	"0.5"	"0.5"	"0.5"	"0.5"	"0.5"	"0.5"	"0.5"	"0.5"	"0.5"	"0.5"	"0.5"	"0.5"	"0.5"	"0.5"	"0.5"	"0.5"	"0.5"	"."	"."	"1"	"1"	"1"	"1"	"1"	"1"	"1"	"1"	"1"	"1"	"1"	"1"	"1"	"1"	"1"	"1"	"1"	"1"	"1"	"1"	"1"	"1"	"1"	"1"	"1"	"1"	"1"	"1"	"1"	"1"	"1"	"1"	"1"	"1"	"1"	"."	"."	"0.5"	"0.5"	"0.5"	"0.5"	"0.5"	"0.5"	"0.5"	"0.5"	"0.5"	"0.5"	"0.5"	"0.5"	"0.5"	"0.5"	"0.5"	"0.5"	"0.5"	"0.5"	"0.5"	"0.5"	"0.5"	"0.5"	"0.5"	"0.5"	"0.5"	"0.5"	"0.5"	"0.5"	"0.5"	"0.5"	"0.5"	"0.5"	"0.5"	"0.5"	"0.5"	"0.5"	"0.5"	"0.5"	"0.5"	"0.5"	"0.5"	"0.5"	"0.5"	"0.5"	"0.5"	"0.5"	"0.5"	"0.5"	"0.5"	"0.5"	"0.5"	"0.5"	"0.5"	"0.5"	"0.5"	"0.5"	"0.5"	""	""	""	""	""	""	""	""	""	""	""	""	""	""	""	""	""	""	""	""	""	""	""	""	""	""	""	""	""	""	NA	NA	NA	NA	NA	700	NA	0	0	2500	0	2500	"sol-ichart-v1-processed"	"./"	"V1"	"yes"	NA	"adult"	NA	"ball"	NA	"known_sign"	36	"include"	"Adults"	"C_T"	"1"	2	4	700	2	35	700	2	35	0.743055555555556	TRUE	TRUE	TRUE
"30005"	575	"M"	"sol-inc-1-prime-nounon"	34	""	"redball.pct"	""	"blueshoeL.pct"	"r"	"blueshoeL.pct"	"Vanilla"	"D"	2	867	2825	8000	"0.5"	"0.5"	"0.5"	"0.5"	"0.5"	"0.5"	"0.5"	"0.5"	"0.5"	"0.5"	"0.5"	"0.5"	"0.5"	"0.5"	"0.5"	"0.5"	"0.5"	"0.5"	"0.5"	"0.5"	"0.5"	"0.5"	"0.5"	"0.5"	"0.5"	"0.5"	"."	"."	"1"	"1"	"1"	"1"	"1"	"1"	"1"	"1"	"1"	"1"	"1"	"1"	"1"	"1"	"1"	"1"	"1"	"1"	"1"	"1"	"1"	"1"	"1"	"1"	"1"	"1"	"1"	"1"	"1"	"1"	"1"	"1"	"1"	"1"	"1"	"1"	"1"	"1"	"1"	"1"	"1"	"1"	"1"	"1"	"1"	"1"	"1"	"1"	"1"	"1"	"1"	"1"	"1"	"1"	"1"	"1"	"1"	"1"	"."	"."	"."	"."	"."	"0.5"	"0.5"	"0.5"	"0.5"	"0.5"	"0.5"	"0.5"	"0.5"	"0.5"	"0.5"	"0.5"	"0.5"	"0.5"	"0.5"	"0.5"	"0.5"	"0.5"	"0.5"	"0.5"	"0.5"	"0.5"	"0.5"	"0.5"	"0.5"	"0.5"	"0.5"	"0.5"	"0.5"	"0.5"	"0.5"	"0.5"	""	""	""	""	""	""	""	""	""	""	""	""	""	""	""	""	""	""	""	""	""	""	""	""	""	NA	NA	NA	NA	NA	867	NA	0	0	2500	0	2500	"sol-ichart-v1-processed"	"./"	"V1"	"yes"	NA	"adult"	NA	"shoe"	NA	"known_sign"	36	"include"	"Adults"	"C_T"	"1"	2	2	867	2	48	867	1	48	0.824324324324324	TRUE	TRUE	TRUE
"30005"	575	"M"	"sol-inc-1-prime-nounon"	35	""	"doll4L.pct"	""	"teddy3.pct"	"r"	"teddy3.pct"	"Vanilla"	"D"	2	1133	2099	8000	"0.5"	"0.5"	"0.5"	"0.5"	"0.5"	"0.5"	"0.5"	"0.5"	"0.5"	"0.5"	"0.5"	"0.5"	"0.5"	"0.5"	"0.5"	"0.5"	"0.5"	"0.5"	"0.5"	"0.5"	"0.5"	"0.5"	"0.5"	"0.5"	"0.5"	"0.5"	"0.5"	"0.5"	"0.5"	"0.5"	"0.5"	"0.5"	"0.5"	"0.5"	"."	"."	"1"	"1"	"1"	"1"	"1"	"1"	"1"	"1"	"1"	"1"	"1"	"1"	"1"	"1"	"1"	"1"	"1"	"1"	"1"	"1"	"1"	"1"	"1"	"1"	"1"	"1"	"1"	"1"	"1"	"1"	"1"	"1"	"1"	"1"	"1"	"1"	"1"	"1"	"1"	"1"	"1"	"1"	"1"	"1"	"1"	"1"	"1"	"1"	"1"	"1"	"1"	"1"	"1"	"1"	"1"	"1"	"1"	"1"	"1"	"1"	"1"	"1"	"1"	"1"	"1"	"1"	"1"	"1"	"1"	"1"	"1"	"1"	"1"	"1"	"1"	"1"	"1"	"1"	"1"	"1"	"1"	"1"	"1"	"1"	"1"	"1"	""	""	""	""	""	""	""	""	""	""	""	""	""	""	""	""	""	""	""	""	""	""	""	""	""	NA	NA	NA	NA	NA	1133	NA	0	0	2500	0	2500	"sol-ichart-v1-processed"	"./"	"V1"	"yes"	NA	"adult"	NA	"teddy"	NA	"known_sign"	36	"include"	"Adults"	"C_T"	"1"	2	2	1133	2	40	1133	1	40	0.77027027027027	TRUE	TRUE	TRUE
"30005"	575	"M"	"sol-inc-1-prime-nounon"	36	""	"redsockR.pct"	""	"redcup.pct"	"l"	"redsockR.pct"	"Vanilla"	"D"	3	367	3165	8000	"0.5"	"0.5"	"0.5"	"0.5"	"0.5"	"0.5"	"0.5"	"0.5"	"0.5"	"0.5"	"0.5"	"."	"."	"."	"1"	"1"	"1"	"1"	"1"	"1"	"1"	"1"	"1"	"1"	"1"	"1"	"1"	"1"	"1"	"1"	"1"	"1"	"1"	"1"	"1"	"1"	"1"	"1"	"1"	"1"	"1"	"1"	"1"	"1"	"1"	"1"	"1"	"."	"."	"."	"."	"."	"0.5"	"0.5"	"0.5"	"0.5"	"0.5"	"0.5"	"0.5"	"0.5"	"0.5"	"0.5"	"0.5"	"0.5"	"0.5"	"0.5"	"0.5"	"0.5"	"0.5"	"0.5"	"0.5"	"0.5"	"0.5"	"0.5"	"0.5"	"0.5"	"0.5"	"0.5"	"0.5"	"0.5"	"0.5"	"0.5"	"0.5"	"0.5"	"0.5"	"0.5"	"0.5"	"0.5"	"0.5"	"0.5"	"0.5"	"0.5"	"0.5"	"0.5"	"0.5"	"0.5"	"0.5"	"0.5"	"0.5"	"0.5"	"0.5"	"0.5"	"0.5"	"0.5"	"0.5"	"0.5"	"0.5"	"0.5"	"0.5"	"0.5"	"0.5"	"0.5"	"0.5"	""	""	""	""	""	""	""	""	""	""	""	""	""	""	""	""	""	""	""	""	""	""	""	""	""	""	""	""	""	""	""	""	""	""	NA	NA	NA	NA	NA	367	NA	0	0	2500	0	2500	"sol-ichart-v1-processed"	"./"	"V1"	"yes"	NA	"adult"	NA	"sock"	NA	"known_sign"	36	"include"	"Adults"	"C_T"	"1"	5	8	1567	3	33	367	2	33	0.742647058823529	TRUE	FALSE	TRUE
"30005"	575	"M"	"sol-inc-1-prime-nounon"	37	""	"kitty4R.pct"	""	"birdy4L.pct"	"l"	"kitty4R.pct"	"Vanilla"	"D"	2	533	3132	8000	"0.5"	"0.5"	"0.5"	"0.5"	"0.5"	"0.5"	"0.5"	"0.5"	"0.5"	"0.5"	"0.5"	"0.5"	"0.5"	"0.5"	"0.5"	"0.5"	"."	"."	"0"	"0"	"0"	"0"	"0"	"."	"."	"1"	"1"	"1"	"1"	"1"	"1"	"1"	"1"	"1"	"1"	"1"	"1"	"1"	"1"	"1"	"1"	"1"	"1"	"1"	"1"	"1"	"1"	"1"	"1"	"1"	"1"	"1"	"1"	"1"	"1"	"1"	"1"	"1"	"1"	"1"	"1"	"1"	"1"	"1"	"1"	"1"	"1"	"1"	"1"	"1"	"1"	"1"	"1"	"1"	"1"	"1"	"1"	"1"	"1"	"1"	"1"	"1"	"1"	"1"	"1"	"1"	"1"	"1"	"1"	"1"	"1"	"1"	"1"	"1"	"1"	"1"	"1"	"1"	"1"	"1"	"1"	"1"	"1"	"1"	"1"	"1"	"1"	"1"	"1"	"1"	"1"	"1"	"1"	"1"	"1"	"1"	"1"	"1"	"1"	"1"	"1"	"1"	"1"	"1"	"1"	"1"	"1"	"1"	"1"	"1"	"1"	"1"	"1"	"1"	""	""	""	""	""	""	""	""	""	""	""	""	""	NA	NA	NA	NA	NA	533	NA	0	0	2500	0	2500	"sol-ichart-v1-processed"	"./"	"V1"	"yes"	NA	"adult"	NA	"kitty"	NA	"known_sign"	36	"include"	"Adults"	"C_D"	"1"	2	4	533	2	51	767	2	5	0.819444444444444	TRUE	TRUE	TRUE
"30005"	575	"M"	"sol-inc-1-prime-nounon"	38	""	"redshoeR.pct"	""	"blueball.pct"	"l"	"redshoeR.pct"	"Vanilla"	"D"	2	367	3231	8000	"0.5"	"0.5"	"0.5"	"0.5"	"0.5"	"0.5"	"0.5"	"0.5"	"0.5"	"0.5"	"0.5"	"."	"."	"1"	"1"	"1"	"1"	"1"	"1"	"1"	"1"	"1"	"1"	"1"	"1"	"1"	"1"	"1"	"1"	"1"	"1"	"1"	"1"	"1"	"1"	"1"	"1"	"1"	"1"	"1"	"1"	"1"	"1"	"1"	"1"	"1"	"1"	"1"	"1"	"1"	"1"	"1"	"1"	"1"	"1"	"1"	"1"	"1"	"1"	"1"	"1"	"1"	"1"	"1"	"1"	"1"	"1"	"1"	"1"	"1"	"1"	"1"	"1"	"1"	"1"	"1"	"1"	"1"	"1"	"1"	"1"	"1"	"1"	"1"	"1"	"1"	"1"	"1"	"1"	"1"	"1"	"1"	"1"	"1"	"1"	"1"	"1"	"1"	"1"	"1"	"1"	"1"	"1"	"1"	"1"	"1"	"1"	"1"	"1"	"1"	"1"	""	""	""	""	""	""	""	""	""	""	""	""	""	""	""	""	""	""	""	""	""	""	""	""	""	""	""	""	""	""	""	""	""	""	""	""	NA	NA	NA	NA	NA	367	NA	0	0	2500	0	2500	"sol-ichart-v1-processed"	"./"	"V1"	"yes"	NA	"adult"	NA	"shoe"	NA	"known_sign"	36	"include"	"Adults"	"C_T"	"1"	2	2	367	2	63	367	1	63	0.925675675675676	TRUE	FALSE	TRUE
"30005"	575	"M"	"sol-inc-1-prime-nounon"	39	""	"cookie3.pct"	""	"juice3.pct"	"r"	"juice3.pct"	"Vanilla"	"D"	3	700	2165	8000	"0.5"	"0.5"	"0.5"	"0.5"	"0.5"	"0.5"	"0.5"	"0.5"	"0.5"	"0.5"	"0.5"	"0.5"	"0.5"	"0.5"	"0.5"	"0.5"	"0.5"	"0.5"	"0.5"	"0.5"	"0.5"	"."	"."	"."	"1"	"1"	"1"	"1"	"1"	"1"	"1"	"1"	"1"	"1"	"1"	"1"	"1"	"1"	"1"	"1"	"1"	"1"	"1"	"1"	"1"	"."	"."	"."	"."	"."	"."	"."	"."	"."	"."	"."	"."	"."	"."	"."	"."	"."	"."	"."	"."	"."	"."	"."	"."	"."	"."	"."	"."	"."	"."	"."	"."	"."	"."	"."	"."	"."	"."	"."	"."	"."	"."	"."	"."	"."	"."	"."	"."	"."	"."	"."	"."	"."	"."	"."	"."	"."	"."	"."	"."	"."	"."	"."	"."	"."	""	""	""	""	""	""	""	""	""	""	""	""	""	""	""	""	""	""	""	""	""	""	""	""	""	""	""	""	""	""	""	""	""	""	""	""	""	NA	NA	NA	NA	NA	700	NA	0	0	2500	0	2500	"sol-ichart-v1-processed"	"./"	"V1"	"yes"	NA	"adult"	NA	"juice"	NA	"known_sign"	36	"include"	"Adults"	"C_T"	"1"	31	34	1500	3	21	700	2	21	0.75	TRUE	TRUE	FALSE
"30006"	575	"F"	"sol-inc-2-nounon"	2	""	"doll1R.pct"	"sign.pct"	"teddy1.pct"	"l"	"doll1R.pct"	"Vanilla"	"D"	2	767	2066	6000	"0.5"	"0.5"	"0.5"	"0.5"	"0.5"	"0.5"	"0.5"	"0.5"	"0.5"	"0.5"	"0.5"	"0.5"	"0.5"	"0.5"	"0.5"	"0.5"	"0.5"	"0.5"	"0.5"	"0.5"	"0.5"	"0.5"	"0.5"	"."	"."	"1"	"1"	"1"	"1"	"1"	"1"	"1"	"1"	"1"	"1"	"1"	"1"	"1"	"1"	"1"	"1"	"1"	"1"	"1"	"1"	"1"	"1"	"1"	"."	"0.5"	"0.5"	"0.5"	"0.5"	"0.5"	"0.5"	"0.5"	"0.5"	"0.5"	"0.5"	"0.5"	"0.5"	"0.5"	"0.5"	"0.5"	"0.5"	"0.5"	"0.5"	"0.5"	"0.5"	"0.5"	"0.5"	"0.5"	"0.5"	"0.5"	"0.5"	"0.5"	"0.5"	"0.5"	"0.5"	"0.5"	"0.5"	"0.5"	"0.5"	"0.5"	"0.5"	"0.5"	"0.5"	"0.5"	"0.5"	"0.5"	"0.5"	"0.5"	"0.5"	"0.5"	"0.5"	"0.5"	"0.5"	"0.5"	"0.5"	"0.5"	"0.5"	"0.5"	"0.5"	"0.5"	"0.5"	"0.5"	"0.5"	"0.5"	"0.5"	"0.5"	"0.5"	""	""	""	""	""	""	""	""	""	""	""	""	""	""	""	""	""	""	""	""	""	""	""	""	""	""	""	""	""	""	""	""	""	""	""	""	NA	NA	NA	NA	NA	767	NA	0	0	2500	0	2500	"sol-ichart-v1-processed"	"./"	"V1"	"yes"	NA	"adult"	NA	"doll"	NA	"known_sign"	36	"include"	"Adults"	"C_T"	"1"	2	3	767	2	23	767	2	23	0.657534246575342	TRUE	TRUE	TRUE
"30006"	575	"F"	"sol-inc-2-nounon"	3	""	"redsockR.pct"	"sign.pct"	"bluecup.pct"	"l"	"redsockR.pct"	"Vanilla"	"D"	5	867	3165	6000	"0.5"	"0.5"	"0.5"	"0.5"	"0.5"	"0.5"	"0.5"	"0.5"	"0.5"	"0.5"	"0.5"	"0.5"	"0.5"	"0.5"	"0.5"	"0.5"	"0.5"	"0.5"	"0.5"	"0.5"	"0.5"	"0.5"	"0.5"	"0.5"	"0.5"	"0.5"	"."	"."	"."	"."	"."	"1"	"1"	"1"	"1"	"1"	"1"	"1"	"1"	"1"	"1"	"1"	"1"	"1"	"1"	"1"	"1"	"1"	"1"	"1"	"1"	"1"	"1"	"1"	"1"	"1"	"1"	"1"	"1"	"1"	"1"	"1"	"1"	"1"	"1"	"1"	"1"	"."	"."	"."	"."	"."	"0.5"	"0.5"	"0.5"	"0.5"	"0.5"	"0.5"	"0.5"	"0.5"	"0.5"	"0.5"	"0.5"	"0.5"	"0.5"	"0.5"	"0.5"	"0.5"	"0.5"	"0.5"	"0.5"	"0.5"	"0.5"	"0.5"	"0.5"	"0.5"	"0.5"	"0.5"	"0.5"	"0.5"	"0.5"	"0.5"	"0.5"	"0.5"	"0.5"	"0.5"	"0.5"	"0.5"	"0.5"	"0.5"	"0.5"	"0.5"	"0.5"	""	""	""	""	""	""	""	""	""	""	""	""	""	""	""	""	""	""	""	""	""	""	""	""	""	""	""	""	""	""	""	""	""	""	NA	NA	NA	NA	NA	867	NA	0	0	2500	0	2500	"sol-ichart-v1-processed"	"./"	"V1"	"yes"	NA	"adult"	NA	"sock"	NA	"known_sign"	36	"include"	"Adults"	"C_T"	"1"	5	10	867	5	36	867	2	36	0.772727272727273	TRUE	TRUE	TRUE
"30006"	575	"F"	"sol-inc-2-nounon"	4	""	"cookie1.pct"	"sign.pct"	"juice1.pct"	"r"	"juice1.pct"	"Vanilla"	"D"	6	933	2165	6000	"0.5"	"0.5"	"0.5"	"0.5"	"0.5"	"0.5"	"0.5"	"0.5"	"0.5"	"0.5"	"0.5"	"0.5"	"0.5"	"0.5"	"0.5"	"0.5"	"0.5"	"0.5"	"0.5"	"0.5"	"0.5"	"0.5"	"0.5"	"0.5"	"0.5"	"0.5"	"0.5"	"0.5"	"."	"."	"."	"."	"."	"."	"1"	"1"	"1"	"1"	"1"	"1"	"1"	"1"	"1"	"1"	"1"	"1"	"1"	"1"	"1"	"1"	"1"	"1"	"1"	"1"	"1"	"1"	"1"	"1"	"1"	"1"	"1"	"1"	"1"	"1"	"1"	"1"	"1"	"1"	"1"	"1"	"1"	"1"	"1"	"1"	"1"	"1"	"1"	"1"	"1"	"1"	"1"	"1"	"1"	"1"	"1"	"1"	"1"	"1"	"1"	"1"	"1"	"1"	"1"	"1"	"1"	"."	"."	"."	"."	"."	"."	"0.5"	"0.5"	"0.5"	"0.5"	"0.5"	"0.5"	"0.5"	""	""	""	""	""	""	""	""	""	""	""	""	""	""	""	""	""	""	""	""	""	""	""	""	""	""	""	""	""	""	""	""	""	""	""	""	""	""	""	NA	NA	NA	NA	NA	933	NA	0	0	2500	0	2500	"sol-ichart-v1-processed"	"./"	"V1"	"yes"	NA	"adult"	NA	"juice"	NA	"known_sign"	36	"include"	"Adults"	"C_T"	"1"	6	6	933	6	42	933	1	42	0.8	TRUE	TRUE	TRUE
"30006"	575	"F"	"sol-inc-2-nounon"	5	""	"juice2.pct"	"sign.pct"	"cookie2.pct"	"r"	"cookie2.pct"	"Vanilla"	"D"	8	NA	2330	6000	"0.5"	"0.5"	"0.5"	"0.5"	"0.5"	"0.5"	"0.5"	"0.5"	"0.5"	"0.5"	"0.5"	"0.5"	"0.5"	"0.5"	"0.5"	"0.5"	"0.5"	"0.5"	"0.5"	"0.5"	"0.5"	"0.5"	"0.5"	"0.5"	"0.5"	"0.5"	"0.5"	"0.5"	"0.5"	"0.5"	"0.5"	"0.5"	"0.5"	"0.5"	"0.5"	"0.5"	"0.5"	"0.5"	"0.5"	"0.5"	"0.5"	"0.5"	"0.5"	"0.5"	"0.5"	"0.5"	"0.5"	"0.5"	"0.5"	"0.5"	"0.5"	"0.5"	"0.5"	"0.5"	"0.5"	"0.5"	"0.5"	"0.5"	"0.5"	"0.5"	"0.5"	"0.5"	"0.5"	"0.5"	"0.5"	"0.5"	"0.5"	"0.5"	"0.5"	"0.5"	"0.5"	"0.5"	"0.5"	"0.5"	"0.5"	"0.5"	"0.5"	"0.5"	"0.5"	"0.5"	"0.5"	"."	"."	"."	"."	"."	"."	"."	"."	"1"	"1"	"1"	"1"	"1"	"1"	"1"	"1"	"1"	"1"	"1"	"1"	"1"	"1"	"1"	"1"	"1"	"1"	"1"	"1"	"1"	"1"	"1"	"1"	"1"	"1"	""	""	""	""	""	""	""	""	""	""	""	""	""	""	""	""	""	""	""	""	""	""	""	""	""	""	""	""	""	""	""	""	NA	NA	NA	NA	NA	2700	NA	0	0	2500	0	2500	"sol-ichart-v1-processed"	"./"	"V1"	"yes"	NA	"adult"	NA	"cookie"	NA	"known_sign"	36	"include"	"Adults"	"no_shift"	"1"	0	0	NA	NA	0	NA	0	0	0.5	NA	NA	TRUE
"30006"	575	"F"	"sol-inc-2-nounon"	6	""	"redcup.pct"	"sign.pct"	"redsockL.pct"	"l"	"redcup.pct"	"Vanilla"	"D"	6	1400	3594	6000	"0.5"	"0.5"	"0.5"	"0.5"	"0.5"	"0.5"	"0.5"	"0.5"	"0.5"	"0.5"	"0.5"	"0.5"	"0.5"	"0.5"	"0.5"	"0.5"	"0.5"	"0.5"	"0.5"	"0.5"	"0.5"	"0.5"	"0.5"	"0.5"	"0.5"	"0.5"	"0.5"	"0.5"	"0.5"	"0.5"	"0.5"	"0.5"	"0.5"	"0.5"	"0.5"	"0.5"	"0.5"	"0.5"	"0.5"	"0.5"	"0.5"	"0.5"	"."	"."	"."	"."	"."	"."	"1"	"1"	"1"	"1"	"1"	"1"	"1"	"1"	"1"	"1"	"1"	"1"	"1"	"1"	"1"	"1"	"1"	"1"	"1"	"1"	"1"	"1"	"1"	"1"	"1"	"1"	"1"	"1"	"1"	"1"	"1"	"1"	"1"	"1"	"1"	"1"	"1"	"1"	"1"	"1"	"1"	"1"	"1"	"1"	"1"	"1"	"1"	"1"	"1"	"1"	"1"	"1"	"1"	"1"	"1"	"1"	"1"	"1"	"1"	"1"	"1"	"1"	"1"	"1"	"1"	"1"	"1"	"1"	"1"	"1"	"1"	"1"	"1"	"1"	"1"	"1"	"1"	"1"	"1"	"1"	"1"	"1"	"1"	"1"	"1"	"1"	"1"	"1"	"1"	"1"	"1"	"1"	"1"	"1"	"1"	"1"	"1"	"1"	"1"	NA	NA	NA	NA	NA	1400	NA	0	0	2500	0	2500	"sol-ichart-v1-processed"	"./"	"V1"	"yes"	NA	"adult"	NA	"cup"	NA	"known_sign"	36	"include"	"Adults"	"C_T"	"1"	6	6	1400	6	28	1400	1	28	0.7	TRUE	TRUE	TRUE
"30006"	575	"F"	"sol-inc-2-nounon"	7	""	"cookie2.pct"	"sign.pct"	"juice2.pct"	"l"	"cookie2.pct"	"Vanilla"	"D"	7	1133	2429	6000	"0.5"	"0.5"	"0.5"	"0.5"	"0.5"	"0.5"	"0.5"	"0.5"	"0.5"	"0.5"	"0.5"	"0.5"	"0.5"	"0.5"	"0.5"	"0.5"	"0.5"	"0.5"	"0.5"	"0.5"	"0.5"	"0.5"	"0.5"	"0.5"	"0.5"	"0.5"	"0.5"	"0.5"	"0.5"	"0.5"	"0.5"	"0.5"	"0.5"	"0.5"	"."	"."	"."	"."	"."	"."	"."	"1"	"1"	"1"	"1"	"1"	"1"	"1"	"1"	"1"	"1"	"1"	"1"	"1"	"1"	"1"	"1"	"1"	"1"	"1"	"1"	"1"	"1"	"1"	"1"	"1"	"1"	"1"	"1"	"1"	"1"	"1"	"1"	"1"	"1"	"1"	"1"	"1"	"1"	"1"	"1"	"1"	"1"	"1"	"1"	"1"	"1"	"1"	"1"	"1"	"1"	"1"	"1"	"1"	"1"	"1"	"1"	"1"	"1"	"1"	"1"	"1"	"1"	"1"	"1"	"1"	"1"	"1"	"1"	"1"	"1"	"1"	"1"	""	""	""	""	""	""	""	""	""	""	""	""	""	""	""	""	""	""	""	""	""	""	""	""	""	""	""	""	""	""	""	""	""	""	NA	NA	NA	NA	NA	1133	NA	0	0	2500	0	2500	"sol-ichart-v1-processed"	"./"	"V1"	"yes"	NA	"adult"	NA	"cookie"	NA	"known_sign"	36	"include"	"Adults"	"C_T"	"1"	7	7	1133	7	35	1133	1	35	0.753623188405797	TRUE	TRUE	TRUE
"30006"	575	"F"	"sol-inc-2-nounon"	8	""	"blueshoeR.pct"	"sign.pct"	"blueball.pct"	"r"	"blueball.pct"	"Vanilla"	"D"	7	433	3066	6000	"0.5"	"0.5"	"0.5"	"0.5"	"0.5"	"0.5"	"0.5"	"0.5"	"0.5"	"0.5"	"0.5"	"0.5"	"0.5"	"."	"."	"."	"."	"."	"."	"."	"1"	"1"	"1"	"1"	"1"	"1"	"1"	"1"	"1"	"1"	"1"	"1"	"1"	"1"	"1"	"1"	"1"	"1"	"1"	"1"	"1"	"1"	"1"	"1"	"1"	"1"	"1"	"1"	"1"	"1"	"1"	"1"	"1"	"1"	"1"	"1"	"1"	"1"	"1"	"1"	"1"	"1"	"1"	"1"	"1"	"1"	"1"	"1"	"1"	"1"	"1"	"1"	"1"	"1"	"1"	"1"	"1"	"1"	"1"	"1"	"1"	"1"	"1"	"1"	"1"	"1"	"1"	"1"	"1"	"1"	"1"	"1"	"1"	"1"	"1"	"1"	"1"	"1"	"1"	"1"	"1"	"1"	"1"	"1"	"1"	"1"	"1"	"1"	"1"	"1"	"1"	"1"	"1"	"1"	"1"	"1"	"1"	"1"	""	""	""	""	""	""	""	""	""	""	""	""	""	""	""	""	""	""	""	""	""	""	""	""	""	""	""	""	""	NA	NA	NA	NA	NA	433	NA	0	0	2500	0	2500	"sol-ichart-v1-processed"	"./"	"V1"	"yes"	NA	"adult"	NA	"ball"	NA	"known_sign"	36	"include"	"Adults"	"C_T"	"1"	7	7	433	7	56	433	1	56	0.905797101449275	TRUE	FALSE	TRUE
"30006"	575	"F"	"sol-inc-2-nounon"	9	""	"birdy1R.pct"	"sign.pct"	"kitty1L.pct"	"l"	"birdy1R.pct"	"Vanilla"	"D"	6	NA	2000	6000	"0.5"	"0.5"	"0.5"	"0.5"	"0.5"	"0.5"	"0.5"	"0.5"	"0.5"	"0.5"	"0.5"	"0.5"	"0.5"	"0.5"	"0.5"	"0.5"	"0.5"	"0.5"	"0.5"	"0.5"	"0.5"	"0.5"	"0.5"	"0.5"	"0.5"	"0.5"	"0.5"	"0.5"	"0.5"	"0.5"	"0.5"	"0.5"	"0.5"	"0.5"	"0.5"	"0.5"	"0.5"	"0.5"	"0.5"	"0.5"	"0.5"	"0.5"	"0.5"	"0.5"	"0.5"	"0.5"	"0.5"	"0.5"	"0.5"	"0.5"	"0.5"	"0.5"	"0.5"	"0.5"	"0.5"	"0.5"	"0.5"	"0.5"	"0.5"	"0.5"	"0.5"	"0.5"	"0.5"	"0.5"	"0.5"	"0.5"	"0.5"	"0.5"	"0.5"	"0.5"	"0.5"	"0.5"	"0.5"	"0.5"	"0.5"	"0.5"	"0.5"	"0.5"	"0.5"	"0.5"	"0.5"	"0.5"	"0.5"	"0.5"	"0.5"	"0.5"	"0.5"	"."	"."	"."	"."	"."	"."	"1"	"1"	"1"	""	""	""	""	""	""	""	""	""	""	""	""	""	""	""	""	""	""	""	""	""	""	""	""	""	""	""	""	""	""	""	""	""	""	""	""	""	""	""	""	""	""	""	""	""	""	""	""	""	""	""	NA	NA	NA	NA	NA	2900	NA	0	0	2500	0	2500	"sol-ichart-v1-processed"	"./"	"V1"	"yes"	NA	"adult"	NA	"birdy"	NA	"known_sign"	36	"include"	"Adults"	"no_shift"	"1"	0	0	NA	NA	0	NA	0	0	0.5	NA	NA	TRUE
"30006"	575	"F"	"sol-inc-2-nounon"	10	""	"redcup.pct"	"sign.pct"	"bluesockL.pct"	"r"	"bluesockL.pct"	"Vanilla"	"D"	7	967	3561	6000	"0.5"	"0.5"	"0.5"	"0.5"	"0.5"	"0.5"	"0.5"	"0.5"	"0.5"	"0.5"	"0.5"	"0.5"	"0.5"	"0.5"	"0.5"	"0.5"	"0.5"	"0.5"	"0.5"	"0.5"	"0.5"	"0.5"	"0.5"	"0.5"	"0.5"	"0.5"	"0.5"	"0.5"	"0.5"	"."	"."	"."	"."	"."	"."	"."	"1"	"1"	"1"	"1"	"1"	"1"	"1"	"1"	"1"	"1"	"1"	"1"	"1"	"."	"0.5"	"0.5"	"0.5"	"0.5"	"0.5"	"0.5"	"0.5"	"0.5"	"0.5"	"0.5"	"0.5"	"0.5"	"0.5"	"0.5"	"0.5"	"0.5"	"0.5"	"0.5"	"0.5"	"0.5"	"0.5"	"0.5"	"0.5"	"0.5"	"0.5"	"0.5"	"0.5"	"0.5"	"0.5"	"0.5"	"0.5"	"0.5"	"0.5"	"0.5"	"0.5"	"0.5"	"0.5"	"0.5"	"0.5"	"0.5"	"0.5"	"0.5"	"0.5"	"0.5"	"0.5"	"0.5"	"0.5"	"0.5"	"0.5"	"0.5"	"0.5"	"0.5"	"0.5"	"0.5"	"0.5"	"0.5"	"0.5"	"0.5"	"0.5"	"0.5"	"0.5"	"0.5"	"0.5"	"0.5"	"0.5"	"0.5"	"0.5"	"0.5"	"0.5"	"0.5"	"0.5"	"0.5"	"0.5"	"0.5"	"0.5"	"0.5"	""	""	""	""	""	""	""	""	""	""	""	""	""	""	""	""	""	""	""	""	""	NA	NA	NA	NA	NA	967	NA	0	0	2500	0	2500	"sol-ichart-v1-processed"	"./"	"V1"	"yes"	NA	"adult"	NA	"sock"	NA	"known_sign"	36	"include"	"Adults"	"C_T"	"1"	7	8	967	7	13	967	2	13	0.595588235294118	TRUE	TRUE	TRUE
"30006"	575	"F"	"sol-inc-2-nounon"	11	""	"cookie3.pct"	"sign.pct"	"juice3.pct"	"r"	"juice3.pct"	"Vanilla"	"D"	2	1300	2330	6000	"0.5"	"0.5"	"0.5"	"0.5"	"0.5"	"0.5"	"0.5"	"0.5"	"0.5"	"0.5"	"0.5"	"0.5"	"0.5"	"0.5"	"0.5"	"0.5"	"0.5"	"0.5"	"0.5"	"0.5"	"0.5"	"0.5"	"0.5"	"0.5"	"0.5"	"0.5"	"0.5"	"0.5"	"0.5"	"0.5"	"0.5"	"0.5"	"0.5"	"0.5"	"0.5"	"0.5"	"0.5"	"0.5"	"0.5"	"."	"."	"1"	"1"	"1"	"1"	"1"	"1"	"1"	"1"	"1"	"1"	"1"	"1"	"1"	"1"	"1"	"1"	"1"	"1"	"1"	"1"	"1"	"1"	"1"	"1"	"1"	"1"	"1"	"1"	"1"	"1"	"1"	"1"	"1"	"1"	"1"	"1"	"1"	"1"	"1"	"1"	"1"	"1"	"1"	"1"	"1"	"1"	"1"	"1"	"1"	""	""	""	""	""	""	""	""	""	""	""	""	""	""	""	""	""	""	""	""	""	""	""	""	""	""	""	""	""	""	""	""	""	""	""	""	""	""	""	""	""	""	""	""	""	""	""	""	""	""	""	""	""	""	""	""	""	NA	NA	NA	NA	NA	1300	NA	0	0	2500	0	2500	"sol-ichart-v1-processed"	"./"	"V1"	"yes"	NA	"adult"	NA	"juice"	NA	"known_sign"	36	"include"	"Adults"	"C_T"	"1"	2	2	1300	2	35	1300	1	35	0.736486486486487	TRUE	TRUE	TRUE
"30006"	575	"F"	"sol-inc-2-nounon"	12	""	"blueshoeR.pct"	"sign.pct"	"redball.pct"	"r"	"redball.pct"	"Vanilla"	"D"	7	2200	3033	6000	"0.5"	"0.5"	"0.5"	"0.5"	"0.5"	"0.5"	"0.5"	"0.5"	"0.5"	"0.5"	"0.5"	"0.5"	"0.5"	"0.5"	"0.5"	"0.5"	"0.5"	"0.5"	"0.5"	"0.5"	"0.5"	"0.5"	"0.5"	"0.5"	"0.5"	"0.5"	"0.5"	"0.5"	"0.5"	"0.5"	"0.5"	"0.5"	"0.5"	"0.5"	"0.5"	"0.5"	"0.5"	"0.5"	"0.5"	"0.5"	"0.5"	"0.5"	"0.5"	"0.5"	"0.5"	"0.5"	"0.5"	"0.5"	"0.5"	"0.5"	"0.5"	"0.5"	"0.5"	"0.5"	"0.5"	"0.5"	"0.5"	"0.5"	"0.5"	"0.5"	"0.5"	"0.5"	"0.5"	"0.5"	"0.5"	"0.5"	"."	"."	"."	"."	"."	"."	"."	"1"	"1"	"1"	"1"	"1"	"1"	"1"	"1"	"1"	"1"	"1"	"1"	"1"	"1"	"1"	"1"	"1"	"1"	"1"	"1"	"1"	"1"	"1"	"1"	"1"	"1"	"1"	"1"	"1"	"1"	"1"	"1"	"1"	"1"	"1"	"1"	"1"	"1"	"1"	"1"	"1"	"1"	"1"	"1"	"1"	"1"	"1"	"1"	"1"	"1"	"1"	"1"	"1"	"1"	"1"	"1"	"1"	"1"	"1"	""	""	""	""	""	""	""	""	""	""	""	""	""	""	""	NA	NA	NA	NA	NA	2200	NA	0	0	2500	0	2500	"sol-ichart-v1-processed"	"./"	"V1"	"yes"	NA	"adult"	NA	"ball"	NA	"known_sign"	36	"include"	"Adults"	"C_T"	"1"	7	7	2200	7	3	2200	1	3	0.521739130434783	TRUE	FALSE	TRUE
"30006"	575	"F"	"sol-inc-2-nounon"	13	""	"cookie1.pct"	"sign.pct"	"juice1.pct"	"l"	"cookie1.pct"	"Vanilla"	"D"	2	767	2330	6000	"0.5"	"0.5"	"0.5"	"0.5"	"0.5"	"0.5"	"0.5"	"0.5"	"0.5"	"0.5"	"0.5"	"0.5"	"0.5"	"0.5"	"0.5"	"0.5"	"0.5"	"0.5"	"0.5"	"0.5"	"0.5"	"0.5"	"0.5"	"."	"."	"1"	"1"	"1"	"1"	"1"	"1"	"1"	"1"	"1"	"1"	"1"	"1"	"1"	"1"	"1"	"1"	"1"	"1"	"1"	"1"	"1"	"1"	"1"	"1"	"1"	"1"	"1"	"1"	"1"	"1"	"1"	"1"	"1"	"1"	"1"	"1"	"1"	"1"	"1"	"1"	"1"	"1"	"1"	"1"	"1"	"1"	"1"	"1"	"1"	"1"	"1"	"1"	"1"	"1"	"1"	"1"	"1"	"1"	"1"	"1"	"1"	"1"	"1"	"1"	"1"	"1"	"1"	"1"	"1"	"1"	"1"	"1"	"1"	"1"	"1"	"1"	"1"	"1"	"1"	"1"	"1"	"1"	"1"	"1"	"1"	"1"	"1"	"1"	"1"	"1"	"1"	""	""	""	""	""	""	""	""	""	""	""	""	""	""	""	""	""	""	""	""	""	""	""	""	""	""	""	""	""	""	""	NA	NA	NA	NA	NA	767	NA	0	0	2500	0	2500	"sol-ichart-v1-processed"	"./"	"V1"	"yes"	NA	"adult"	NA	"cookie"	NA	"known_sign"	36	"include"	"Adults"	"C_T"	"1"	2	2	767	2	51	767	1	51	0.844594594594595	TRUE	TRUE	TRUE
"30006"	575	"F"	"sol-inc-2-nounon"	14	""	"juice1.pct"	"sign.pct"	"cookie1.pct"	"l"	"juice1.pct"	"Vanilla"	"D"	7	900	2165	6000	"0.5"	"0.5"	"0.5"	"0.5"	"0.5"	"0.5"	"0.5"	"0.5"	"0.5"	"0.5"	"0.5"	"0.5"	"0.5"	"0.5"	"0.5"	"0.5"	"0.5"	"0.5"	"0.5"	"0.5"	"0.5"	"0.5"	"0.5"	"0.5"	"0.5"	"0.5"	"0.5"	"."	"."	"."	"."	"."	"."	"."	"1"	"1"	"1"	"1"	"1"	"1"	"1"	"1"	"1"	"1"	"1"	"1"	"1"	"1"	"1"	"1"	"1"	"1"	"1"	"1"	"1"	"1"	"1"	"1"	"1"	"1"	"1"	"1"	"1"	"1"	"1"	"1"	"1"	"1"	"1"	"1"	"1"	"1"	"1"	"1"	"."	"."	"."	"."	"."	"."	"."	"0.5"	"0.5"	"0.5"	"0.5"	"0.5"	"0.5"	"0.5"	"0.5"	"0.5"	"0.5"	"0.5"	"0.5"	"0.5"	"0.5"	"0.5"	"0.5"	"0.5"	"0.5"	"0.5"	"0.5"	"0.5"	"0.5"	"0.5"	"0.5"	"0.5"	"0.5"	"0.5"	""	""	""	""	""	""	""	""	""	""	""	""	""	""	""	""	""	""	""	""	""	""	""	""	""	""	""	""	""	""	""	""	""	""	""	""	""	""	""	NA	NA	NA	NA	NA	900	NA	0	0	2500	0	2500	"sol-ichart-v1-processed"	"./"	"V1"	"yes"	NA	"adult"	NA	"juice"	NA	"known_sign"	36	"include"	"Adults"	"C_T"	"1"	7	9	900	7	40	900	2	40	0.798507462686567	TRUE	TRUE	TRUE
"30006"	575	"F"	"sol-inc-2-nounon"	15	""	"redsockR.pct"	"sign.pct"	"bluecup.pct"	"r"	"bluecup.pct"	"Vanilla"	"D"	7	400	4330	6000	"0.5"	"0.5"	"0.5"	"0.5"	"0.5"	"0.5"	"0.5"	"0.5"	"0.5"	"0.5"	"0.5"	"0.5"	"."	"."	"."	"."	"."	"."	"."	"1"	"1"	"1"	"1"	"1"	"1"	"1"	"1"	"1"	"1"	"1"	"1"	"1"	"1"	"1"	"1"	"1"	"1"	"1"	"1"	"1"	"1"	"1"	"1"	"1"	"1"	"1"	"1"	"1"	"1"	"1"	"."	"0.5"	"0.5"	"0.5"	"0.5"	"0.5"	"0.5"	"0.5"	"0.5"	"0.5"	"0.5"	"0.5"	"0.5"	"0.5"	"0.5"	"0.5"	"0.5"	"0.5"	"0.5"	"0.5"	"0.5"	"0.5"	"0.5"	"0.5"	"0.5"	"0.5"	"0.5"	"0.5"	"0.5"	"0.5"	"0.5"	"0.5"	"0.5"	"0.5"	"0.5"	"0.5"	"0.5"	"0.5"	"0.5"	"0.5"	"0.5"	"0.5"	"0.5"	"0.5"	"0.5"	"0.5"	"0.5"	"0.5"	"0.5"	"0.5"	"0.5"	"0.5"	"0.5"	"0.5"	"0.5"	"0.5"	"0.5"	"0.5"	"0.5"	"0.5"	"0.5"	"0.5"	"0.5"	"0.5"	"0.5"	"0.5"	"0.5"	"0.5"	"0.5"	"0.5"	"0.5"	"0.5"	"0.5"	"0.5"	"0.5"	"0.5"	"0.5"	"0.5"	"0.5"	"0.5"	"0.5"	"0.5"	""	""	""	""	""	""	""	""	""	""	""	""	""	""	""	NA	NA	NA	NA	NA	400	NA	0	0	2500	0	2500	"sol-ichart-v1-processed"	"./"	"V1"	"yes"	NA	"adult"	NA	"cup"	NA	"known_sign"	36	"include"	"Adults"	"C_T"	"1"	7	8	400	7	31	400	2	31	0.727941176470588	TRUE	FALSE	TRUE
"30006"	575	"F"	"sol-inc-2-nounon"	16	""	"redball.pct"	"sign.pct"	"redshoeL.pct"	"r"	"redshoeL.pct"	"Vanilla"	"D"	7	800	3231	6000	"0.5"	"0.5"	"0.5"	"0.5"	"0.5"	"0.5"	"0.5"	"0.5"	"0.5"	"0.5"	"0.5"	"0.5"	"0.5"	"0.5"	"0.5"	"0.5"	"0.5"	"0.5"	"0.5"	"0.5"	"0.5"	"0.5"	"0.5"	"0.5"	"."	"."	"."	"."	"."	"."	"."	"1"	"1"	"1"	"1"	"1"	"1"	"1"	"1"	"1"	"1"	"1"	"1"	"1"	"1"	"1"	"1"	"1"	"1"	"1"	"1"	"1"	"1"	"1"	"1"	"1"	"1"	"1"	"1"	"1"	"1"	"1"	"1"	"1"	"1"	"1"	"1"	"1"	"1"	"1"	"1"	"1"	"1"	"1"	"1"	"1"	"1"	"1"	"1"	"1"	"1"	"1"	"1"	"1"	"1"	"1"	"1"	"1"	"1"	"1"	"1"	"1"	"1"	"1"	"1"	"1"	"1"	"1"	"1"	"1"	"1"	"1"	"1"	"1"	"1"	"1"	"1"	"1"	"1"	"1"	""	""	""	""	""	""	""	""	""	""	""	""	""	""	""	""	""	""	""	""	""	""	""	""	""	""	""	""	""	""	""	""	""	""	""	""	""	NA	NA	NA	NA	NA	800	NA	0	0	2500	0	2500	"sol-ichart-v1-processed"	"./"	"V1"	"yes"	NA	"adult"	NA	"shoe"	NA	"known_sign"	36	"include"	"Adults"	"C_T"	"1"	7	7	800	7	45	800	1	45	0.826086956521739	TRUE	TRUE	TRUE
"30006"	575	"F"	"sol-inc-2-nounon"	17	""	"kitty2R.pct"	"sign.pct"	"birdy2L.pct"	"l"	"kitty2R.pct"	"Vanilla"	"D"	6	NA	2297	6000	"0.5"	"0.5"	"0.5"	"0.5"	"0.5"	"0.5"	"0.5"	"0.5"	"0.5"	"0.5"	"0.5"	"0.5"	"0.5"	"0.5"	"0.5"	"0.5"	"0.5"	"0.5"	"0.5"	"0.5"	"0.5"	"0.5"	"0.5"	"0.5"	"0.5"	"0.5"	"0.5"	"0.5"	"0.5"	"0.5"	"0.5"	"0.5"	"0.5"	"0.5"	"0.5"	"0.5"	"0.5"	"0.5"	"0.5"	"0.5"	"0.5"	"0.5"	"0.5"	"0.5"	"0.5"	"0.5"	"0.5"	"0.5"	"0.5"	"0.5"	"0.5"	"0.5"	"0.5"	"0.5"	"0.5"	"0.5"	"0.5"	"0.5"	"0.5"	"0.5"	"0.5"	"0.5"	"0.5"	"0.5"	"0.5"	"0.5"	"0.5"	"0.5"	"0.5"	"0.5"	"0.5"	"0.5"	"0.5"	"0.5"	"0.5"	"0.5"	"0.5"	"0.5"	"0.5"	"."	"."	"."	"."	"."	"."	"1"	"1"	"1"	"1"	"1"	"1"	"1"	"1"	"1"	"1"	"1"	"1"	"1"	"1"	"1"	"1"	"1"	"1"	"1"	"1"	"1"	"1"	"1"	"1"	"1"	"1"	"1"	"1"	"1"	"1"	"1"	"1"	"1"	"1"	"1"	"1"	"1"	"1"	"1"	"1"	"1"	"1"	"1"	"1"	"1"	"1"	"1"	"1"	"1"	"1"	""	""	""	""	""	""	""	""	""	""	""	""	NA	NA	NA	NA	NA	2633	NA	0	0	2500	0	2500	"sol-ichart-v1-processed"	"./"	"V1"	"yes"	NA	"adult"	NA	"kitty"	NA	"known_sign"	36	"include"	"Adults"	"no_shift"	"1"	0	0	NA	NA	0	NA	0	0	0.5	NA	NA	TRUE
"30006"	575	"F"	"sol-inc-2-nounon"	19	""	"blueshoeR.pct"	"sign.pct"	"blueball.pct"	"l"	"blueshoeR.pct"	"Vanilla"	"D"	8	1000	2825	6000	"0.5"	"0.5"	"0.5"	"0.5"	"0.5"	"0.5"	"0.5"	"0.5"	"0.5"	"0.5"	"0.5"	"0.5"	"0.5"	"0.5"	"0.5"	"0.5"	"0.5"	"0.5"	"0.5"	"0.5"	"0.5"	"0.5"	"0.5"	"0.5"	"0.5"	"0.5"	"0.5"	"0.5"	"0.5"	"0.5"	"."	"."	"."	"."	"."	"."	"."	"."	"1"	"1"	"1"	"1"	"1"	"1"	"1"	"1"	"1"	"1"	"1"	"1"	"1"	"1"	"1"	"1"	"1"	"1"	"1"	"1"	"1"	"1"	"1"	"1"	"1"	"1"	"1"	"1"	"1"	"1"	"1"	"1"	"1"	"."	"."	"0.5"	"0.5"	"0.5"	"0.5"	"0.5"	"0.5"	"0.5"	"0.5"	"0.5"	"0.5"	"0.5"	"0.5"	"0.5"	"0.5"	"0.5"	"0.5"	"0.5"	"0.5"	"0.5"	"0.5"	"0.5"	"0.5"	"0.5"	"0.5"	"0.5"	"0.5"	"0.5"	"0.5"	"0.5"	"0.5"	"0.5"	"0.5"	"0.5"	"0.5"	"0.5"	"0.5"	"0.5"	"0.5"	"0.5"	"0.5"	"0.5"	"0.5"	"0.5"	"0.5"	"0.5"	"0.5"	"0.5"	"0.5"	"0.5"	"0.5"	"0.5"	""	""	""	""	""	""	""	""	""	""	""	""	""	""	""	""	""	""	""	""	""	""	""	NA	NA	NA	NA	NA	1000	NA	0	0	2500	0	2500	"sol-ichart-v1-processed"	"./"	"V1"	"yes"	NA	"adult"	NA	"shoe"	NA	"known_sign"	36	"include"	"Adults"	"C_T"	"1"	8	10	1000	8	33	1000	2	33	0.75	TRUE	TRUE	TRUE
"30006"	575	"F"	"sol-inc-2-nounon"	20	""	"bluesockR.pct"	"sign.pct"	"bluecup.pct"	"l"	"bluesockR.pct"	"Vanilla"	"D"	8	NA	3561	6000	"0.5"	"0.5"	"0.5"	"0.5"	"0.5"	"0.5"	"0.5"	"0.5"	"0.5"	"0.5"	"0.5"	"0.5"	"0.5"	"0.5"	"0.5"	"0.5"	"0.5"	"0.5"	"0.5"	"0.5"	"0.5"	"0.5"	"0.5"	"0.5"	"0.5"	"0.5"	"0.5"	"0.5"	"0.5"	"0.5"	"0.5"	"0.5"	"0.5"	"0.5"	"0.5"	"0.5"	"0.5"	"0.5"	"0.5"	"0.5"	"0.5"	"0.5"	"0.5"	"0.5"	"0.5"	"0.5"	"0.5"	"0.5"	"0.5"	"0.5"	"0.5"	"0.5"	"0.5"	"0.5"	"0.5"	"0.5"	"0.5"	"0.5"	"0.5"	"0.5"	"0.5"	"0.5"	"0.5"	"0.5"	"0.5"	"0.5"	"0.5"	"0.5"	"0.5"	"0.5"	"0.5"	"0.5"	"0.5"	"0.5"	"0.5"	"0.5"	"0.5"	"0.5"	"0.5"	"0.5"	"0.5"	"0.5"	"0.5"	"0.5"	"0.5"	"0.5"	"0.5"	"0.5"	"0.5"	"0.5"	"0.5"	"0.5"	"0.5"	"0.5"	"0.5"	"0.5"	"0.5"	"0.5"	"0.5"	"."	"."	"."	"."	"."	"."	"."	"."	"1"	"1"	"1"	"1"	"1"	"1"	"1"	"1"	"1"	"1"	"1"	"1"	"1"	"1"	"1"	"1"	""	""	""	""	""	""	""	""	""	""	""	""	""	""	""	""	""	""	""	""	""	""	""	""	NA	NA	NA	NA	NA	3300	NA	0	0	2500	0	2500	"sol-ichart-v1-processed"	"./"	"V1"	"yes"	NA	"adult"	NA	"sock"	NA	"known_sign"	36	"include"	"Adults"	"no_shift"	"1"	0	0	NA	NA	0	NA	0	0	0.5	NA	NA	TRUE
"30006"	575	"F"	"sol-inc-2-nounon"	21	""	"doll2R.pct"	"sign.pct"	"teddy2.pct"	"r"	"teddy2.pct"	"Vanilla"	"D"	6	1067	2099	6000	"0.5"	"0.5"	"0.5"	"0.5"	"0.5"	"0.5"	"0.5"	"0.5"	"0.5"	"0.5"	"0.5"	"0.5"	"0.5"	"0.5"	"0.5"	"0.5"	"0.5"	"0.5"	"0.5"	"0.5"	"0.5"	"0.5"	"0.5"	"0.5"	"0.5"	"0.5"	"0.5"	"0.5"	"0.5"	"0.5"	"0.5"	"0.5"	"."	"."	"."	"."	"."	"."	"1"	"1"	"1"	"1"	"1"	"1"	"1"	"1"	"1"	"1"	"1"	"1"	"1"	"1"	"1"	"1"	"1"	"1"	"1"	"1"	"1"	"."	"."	"."	"."	"."	"0"	"0"	"0"	"0"	"0"	"0"	"0"	"0"	"0"	"0"	"0"	"0"	"0"	"0"	"0"	"0"	"0"	"0"	"0"	"0"	"0"	"."	"."	"."	"."	"."	"."	"."	"."	"."	"."	"1"	"1"	"1"	"1"	"1"	"1"	"1"	"1"	"1"	"1"	"1"	"1"	"1"	"1"	"1"	"1"	"1"	"1"	"1"	"."	"."	"0"	"0"	"0"	"0"	"0"	"0"	"0"	""	""	""	""	""	""	""	""	""	""	""	""	""	""	""	""	""	""	""	""	""	""	""	""	NA	NA	NA	NA	NA	1067	NA	0	0	2500	0	2500	"sol-ichart-v1-processed"	"./"	"V1"	"yes"	NA	"adult"	NA	"teddy"	NA	"known_sign"	36	"include"	"Adults"	"C_T"	"1"	6	11	1067	6	21	1067	2	21	0.569230769230769	TRUE	TRUE	TRUE
"30006"	575	"F"	"sol-inc-2-nounon"	22	""	"juice1.pct"	"sign.pct"	"cookie1.pct"	"l"	"juice1.pct"	"Vanilla"	"D"	4	800	2165	6000	"0.5"	"0.5"	"0.5"	"0.5"	"0.5"	"0.5"	"0.5"	"0.5"	"0.5"	"0.5"	"0.5"	"0.5"	"0.5"	"0.5"	"0.5"	"0.5"	"0.5"	"0.5"	"0.5"	"0.5"	"0.5"	"0.5"	"0.5"	"0.5"	"."	"."	"."	"."	"1"	"1"	"1"	"1"	"1"	"1"	"1"	"1"	"1"	"1"	"1"	"1"	"1"	"1"	"1"	"1"	"1"	"1"	"1"	"1"	"1"	"1"	"1"	"1"	"1"	"1"	"1"	"1"	"1"	"1"	"1"	"1"	"."	"."	"0.5"	"0.5"	"0.5"	"0.5"	"0.5"	"0.5"	"0.5"	"0.5"	"0.5"	"0.5"	"0.5"	"0.5"	"0.5"	"0.5"	"0.5"	"0.5"	"0.5"	"0.5"	"0.5"	"0.5"	"0.5"	"0.5"	"0.5"	"0.5"	"0.5"	"0.5"	"0.5"	"0.5"	"0.5"	"0.5"	"0.5"	"0.5"	"0.5"	"0.5"	"0.5"	"0.5"	"0.5"	"0.5"	"0.5"	"0.5"	"0.5"	"0.5"	"0.5"	"0.5"	"0.5"	"0.5"	""	""	""	""	""	""	""	""	""	""	""	""	""	""	""	""	""	""	""	""	""	""	""	""	""	""	""	""	""	""	""	""	""	""	""	""	""	""	""	NA	NA	NA	NA	NA	800	NA	0	0	2500	0	2500	"sol-ichart-v1-processed"	"./"	"V1"	"yes"	NA	"adult"	NA	"juice"	NA	"known_sign"	36	"include"	"Adults"	"C_T"	"1"	4	6	800	4	32	800	2	32	0.728571428571429	TRUE	TRUE	TRUE
"30006"	575	"F"	"sol-inc-2-nounon"	23	""	"kitty3R.pct"	"sign.pct"	"birdy3L.pct"	"r"	"birdy3L.pct"	"Vanilla"	"D"	2	1367	1957	6000	"0.5"	"0.5"	"0.5"	"0.5"	"0.5"	"0.5"	"0.5"	"0.5"	"0.5"	"0.5"	"0.5"	"0.5"	"0.5"	"0.5"	"0.5"	"0.5"	"0.5"	"0.5"	"0.5"	"0.5"	"0.5"	"0.5"	"0.5"	"0.5"	"0.5"	"0.5"	"0.5"	"0.5"	"0.5"	"0.5"	"0.5"	"0.5"	"0.5"	"0.5"	"0.5"	"0.5"	"0.5"	"0.5"	"0.5"	"0.5"	"0.5"	"."	"."	"1"	"1"	"1"	"1"	"1"	"1"	"1"	"1"	"1"	"."	"."	"."	"."	"."	"0.5"	"0.5"	"0.5"	"0.5"	"0.5"	"0.5"	"0.5"	"0.5"	"0.5"	"0.5"	"0.5"	"0.5"	"0.5"	"0.5"	"0.5"	"0.5"	"0.5"	"0.5"	"0.5"	"0.5"	"0.5"	"0.5"	"0.5"	"0.5"	"0.5"	"0.5"	"0.5"	"0.5"	"0.5"	"0.5"	"0.5"	"0.5"	"0.5"	"0.5"	"0.5"	"0.5"	"0.5"	"0.5"	""	""	""	""	""	""	""	""	""	""	""	""	""	""	""	""	""	""	""	""	""	""	""	""	""	""	""	""	""	""	""	""	""	""	""	""	""	""	""	""	""	""	""	""	""	""	""	""	""	""	""	""	NA	NA	NA	NA	NA	1367	NA	0	0	2500	0	2500	"sol-ichart-v1-processed"	"./"	"V1"	"yes"	NA	"adult"	NA	"birdy"	NA	"known_sign"	36	"include"	"Adults"	"C_T"	"1"	5	7	1733	2	9	1367	2	9	0.565217391304348	TRUE	TRUE	TRUE
"30006"	575	"F"	"sol-inc-2-nounon"	24	""	"redcup.pct"	"sign.pct"	"bluesockL.pct"	"l"	"redcup.pct"	"Vanilla"	"D"	NA	NA	3594	6000	"0.5"	"0.5"	"0.5"	"0.5"	"0.5"	"0.5"	"0.5"	"0.5"	"0.5"	"0.5"	"0.5"	"0.5"	"0.5"	"0.5"	"0.5"	"0.5"	"0.5"	"0.5"	"0.5"	"0.5"	"0.5"	"0.5"	"0.5"	"0.5"	"0.5"	"0.5"	"0.5"	"0.5"	"0.5"	"0.5"	"0.5"	"0.5"	"0.5"	"0.5"	"0.5"	"0.5"	"0.5"	"0.5"	"0.5"	"0.5"	"0.5"	"0.5"	"0.5"	"0.5"	"0.5"	"0.5"	"0.5"	"0.5"	"0.5"	"0.5"	"0.5"	"0.5"	"0.5"	"0.5"	"0.5"	"0.5"	"0.5"	"0.5"	"0.5"	"0.5"	"0.5"	"0.5"	"0.5"	"0.5"	"0.5"	"0.5"	"0.5"	"0.5"	"0.5"	"0.5"	"0.5"	"0.5"	"0.5"	"0.5"	"0.5"	"0.5"	"0.5"	"0.5"	"0.5"	"0.5"	"0.5"	"0.5"	"0.5"	"0.5"	"0.5"	"0.5"	"0.5"	"0.5"	"0.5"	"0.5"	"0.5"	"0.5"	"0.5"	"0.5"	"0.5"	"0.5"	"0.5"	"0.5"	"0.5"	"0.5"	"0.5"	"0.5"	"0.5"	"0.5"	"0.5"	"0.5"	"0.5"	"0.5"	"0.5"	"0.5"	"0.5"	"0.5"	"0.5"	"0.5"	"0.5"	"0.5"	"0.5"	"0.5"	"0.5"	"0.5"	"0.5"	"0.5"	"0.5"	"0.5"	"0.5"	"0.5"	"0.5"	"0.5"	"0.5"	"0.5"	"0.5"	"0.5"	"0.5"	"0.5"	"0.5"	"0.5"	"0.5"	"0.5"	"0.5"	"0.5"	"0.5"	"0.5"	"0.5"	"0.5"	"0.5"	"0.5"	"0.5"	NA	NA	NA	NA	NA	NA	NA	0	0	2500	0	2500	"sol-ichart-v1-processed"	"./"	"V1"	"yes"	NA	"adult"	NA	"cup"	NA	"known_sign"	36	"include"	"Adults"	"no_shift"	"1"	0	0	NA	NA	0	NA	0	0	0.5	NA	NA	TRUE
"30006"	575	"F"	"sol-inc-2-nounon"	25	""	"cookie2.pct"	"sign.pct"	"juice2.pct"	"l"	"cookie2.pct"	"Vanilla"	"D"	2	1667	2330	6000	"0.5"	"0.5"	"0.5"	"0.5"	"0.5"	"0.5"	"0.5"	"0.5"	"0.5"	"0.5"	"0.5"	"0.5"	"0.5"	"0.5"	"0.5"	"0.5"	"0.5"	"0.5"	"0.5"	"0.5"	"0.5"	"0.5"	"0.5"	"0.5"	"0.5"	"0.5"	"0.5"	"0.5"	"0.5"	"0.5"	"0.5"	"0.5"	"0.5"	"0.5"	"0.5"	"0.5"	"0.5"	"0.5"	"0.5"	"0.5"	"0.5"	"0.5"	"0.5"	"0.5"	"0.5"	"0.5"	"0.5"	"0.5"	"0.5"	"0.5"	"."	"."	"1"	"1"	"1"	"1"	"1"	"1"	"1"	"1"	"1"	"1"	"1"	"1"	"1"	"1"	"1"	"1"	"1"	"1"	"1"	"1"	"1"	"1"	"1"	"1"	"1"	"1"	"1"	"1"	"1"	"1"	"1"	"1"	"1"	"1"	"1"	"1"	"1"	"1"	"1"	"1"	"1"	"1"	"1"	"1"	"1"	"1"	"1"	"1"	"1"	"1"	"1"	"1"	"1"	"1"	"1"	"1"	"1"	"1"	"1"	"1"	"1"	"1"	"1"	"1"	""	""	""	""	""	""	""	""	""	""	""	""	""	""	""	""	""	""	""	""	""	""	""	""	""	""	""	""	""	""	""	NA	NA	NA	NA	NA	1667	NA	0	0	2500	0	2500	"sol-ichart-v1-processed"	"./"	"V1"	"yes"	NA	"adult"	NA	"cookie"	NA	"known_sign"	36	"include"	"Adults"	"C_T"	"1"	2	2	1667	2	24	1667	1	24	0.662162162162162	TRUE	TRUE	TRUE
