"trial","trial_in_block","block","gate","target_image","chosen_image","chosen_img_index","correct","rt","date","id","gender","age","asl_fluency","age_learned_asl","gate_name","gate_num","gate_signer"
"1","1","1","r_love_car_3_23_6","car","car","1",TRUE,"9106","2015-05-08-11-28",20,"Female","47","2","13","r_love_car_3","6","r"
"2","2","1","r_love_cat_3_24_4","cat","cat","1",TRUE,"7606","2015-05-08-11-28",20,"Female","47","2","13","r_love_cat_3","4","r"
"3","3","1","p_shoe_hey_2_25_1","shoe","ball","0",FALSE,"18090","2015-05-08-11-28",20,"Female","47","2","13","p_shoe_hey_2","1","p"
"4","4","1","r_bear_which_1_24_2","bear","bear","0",TRUE,"10069","2015-05-08-11-28",20,"Female","47","2","13","r_bear_which_1","2","r"
"5","5","1","r_love_ball_3_18_2","ball","ball","0",TRUE,"13238","2015-05-08-11-28",20,"Female","47","2","13","r_love_ball_3","2","r"
"6","6","1","p_book_look_2_06_6","book","book","0",TRUE,"8340","2015-05-08-11-28",20,"Female","47","2","13","p_book_look_2","6","p"
"7","7","1","p_doll_find_2_03_6","doll","doll","0",TRUE,"5235","2015-05-08-11-28",20,"Female","47","2","13","p_doll_find_1","6","p"
"8","8","1","r_cat_where_4_00_3","cat","cat","1",TRUE,"7264","2015-05-08-11-28",20,"Female","47","2","13","r_cat_where_3","3","r"
"9","9","1","p_kitty_hey_3_01_2","cat","cat","1",TRUE,"6694","2015-05-08-11-28",20,"Female","47","2","13","p_kitty_hey_3","2","p"
"10","10","1","p_bear_where_1_27_3","bear","doll","0",FALSE,"5099","2015-05-08-11-28",20,"Female","47","2","13","p_bear_where_1","3","p"
"11","11","1","p_ball_where_1_24_4","ball","shoe","1",FALSE,"6804","2015-05-08-11-28",20,"Female","47","2","13","p_ball_where_1","4","p"
"12","12","1","p_bear_look_1_29_3","bear","bear","0",TRUE,"10441","2015-05-08-11-28",20,"Female","47","2","13","p_bear_look_1","3","p"
"13","13","1","p_kitty_where_2_06_4","cat","cat","0",TRUE,"7548","2015-05-08-11-28",20,"Female","47","2","13","p_kitty_where_2","4","p"
"14","14","1","r_shoes_where_3_26_1","shoe","shoe","0",TRUE,"10487","2015-05-08-11-28",20,"Female","47","2","13","r_shoes_where_3","1","r"
"15","15","1","r_bear_where_4_08_6","bear","bear","1",TRUE,"13806","2015-05-08-11-28",20,"Female","47","2","13","r_bear_where_4","6","r"
"16","16","1","r_love_doll_3_25_6","doll","doll","0",TRUE,"7814","2015-05-08-11-28",20,"Female","47","2","13","r_love_doll_3","6","r"
"17","17","1","p_shoe_where_1_22_5","shoe","shoe","1",TRUE,"5182","2015-05-08-11-28",20,"Female","47","2","13","p_shoe_where_1","5","p"
"18","18","1","p_ball_find_2_06_6","ball","ball","0",TRUE,"5689","2015-05-08-11-28",20,"Female","47","2","13","p_ball_find_2","6","p"
"19","19","1","r_love_shoes_3_14_2","shoe","ball","0",FALSE,"7677","2015-05-08-11-28",20,"Female","47","2","13","r_love_shoes_3","2","r"
"20","20","1","r_cat_which_1_27_6","cat","cat","0",TRUE,"4423","2015-05-08-11-28",20,"Female","47","2","13","r_cat_which_1","6","r"
"21","21","1","p_car_where_1_21_2","car","car","1",TRUE,"5621","2015-05-08-11-28",20,"Female","47","2","13","p_car_where_1","2","p"
"22","22","1","r_shoes_which_1_23_2","shoe","shoe","0",TRUE,"6372","2015-05-08-11-28",20,"Female","47","2","13","r_shoes_which_1","2","r"
"23","23","1","r_book_where_4_06_4","book","book","1",TRUE,"7536","2015-05-08-11-28",20,"Female","47","2","13","r_book_where_4","4","r"
"24","24","1","r_love_bird_3_19_1","bird","bird","1",TRUE,"8889","2015-05-08-11-28",20,"Female","47","2","13","r_love_bird_3","1","r"
"25","25","1","r_ball_where_4_10_5","ball","ball","1",TRUE,"7490","2015-05-08-11-28",20,"Female","47","2","13","r_ball_where_4","5","r"
"26","26","1","r_love_book_3_28_5","book","book","0",TRUE,"9370","2015-05-08-11-28",20,"Female","47","2","13","r_love_book_3","5","r"
"27","27","1","p_doll_where_1_27_4","doll","doll","0",TRUE,"5313","2015-05-08-11-28",20,"Female","47","2","13","p_doll_where_1","4","p"
"28","28","1","r_car_where_3_22_2","car","car","1",TRUE,"7230","2015-05-08-11-28",20,"Female","47","2","13","r_car_where_3","2","r"
"29","29","1","p_bird_look_1_26_3","bird","bird","0",TRUE,"5119","2015-05-08-11-28",20,"Female","47","2","13","p_bird_look_1","3","p"
"30","30","1","r_ball_which_2_01_2","ball","shoe","1",FALSE,"8672","2015-05-08-11-28",20,"Female","47","2","13","r_ball_which_2","2","r"
"31","31","1","r_book_which_1_28_2","book","book","0",TRUE,"8089","2015-05-08-11-28",20,"Female","47","2","13","r_book_which_1","2","r"
"32","32","1","r_doll_which_1_25_6","doll","doll","0",TRUE,"5573","2015-05-08-11-28",20,"Female","47","2","13","r_doll_which_1","6","r"
"33","33","1","r_love_bear_3_19_3","bear","bear","1",TRUE,"7352","2015-05-08-11-28",20,"Female","47","2","13","r_love_bear_3","3","r"
"34","34","1","r_doll_where_4_01_6","doll","doll","0",TRUE,"7266","2015-05-08-11-28",20,"Female","47","2","13","r_doll_where_3","6","r"
"35","35","1","r_car_which_1_27_2","car","book","1",FALSE,"6322","2015-05-08-11-28",20,"Female","47","2","13","r_car_which_1","2","r"
"36","36","1","p_book_where_2_02_3","book","car","0",FALSE,"5773","2015-05-08-11-28",20,"Female","47","2","13","p_book_where_2","3","p"
"37","37","1","p_bird_where_1_27_3","bird","bird","0",TRUE,"5799","2015-05-08-11-28",20,"Female","47","2","13","p_bird_where_1","3","p"
"38","38","1","r_bird_where_4_08_3","bird","bird","0",TRUE,"7643","2015-05-08-11-28",20,"Female","47","2","13","r_bird_where_4","3","r"
"39","1","2","r_love_doll_3_21_2","doll","doll","0",TRUE,"9135","2015-05-08-11-28",20,"Female","47","2","13","r_love_doll_3","2","r"
"40","2","2","r_car_which_2_00_5","car","car","1",TRUE,"4690","2015-05-08-11-28",20,"Female","47","2","13","r_car_which_1","5","r"
"41","3","2","r_cat_where_3_29_2","cat","cat","1",TRUE,"7818","2015-05-08-11-28",20,"Female","47","2","13","r_cat_where_3","2","r"
"42","4","2","r_doll_which_1_21_2","doll","doll","1",TRUE,"7726","2015-05-08-11-28",20,"Female","47","2","13","r_doll_which_1","2","r"
"43","5","2","r_love_ball_3_19_3","ball","shoe","1",FALSE,"8092","2015-05-08-11-28",20,"Female","47","2","13","r_love_ball_3","3","r"
"44","6","2","r_car_where_3_26_6","car","car","1",TRUE,"7664","2015-05-08-11-28",20,"Female","47","2","13","r_car_where_3","6","r"
"45","7","2","r_shoes_which_1_26_5","shoe","shoe","1",TRUE,"4416","2015-05-08-11-28",20,"Female","47","2","13","r_shoes_which_1","5","r"
"46","8","2","p_doll_where_1_28_5","doll","doll","0",TRUE,"5463","2015-05-08-11-28",20,"Female","47","2","13","p_doll_where_1","5","p"
"47","9","2","p_bear_where_1_28_4","bear","bear","0",TRUE,"6439","2015-05-08-11-28",20,"Female","47","2","13","p_bear_where_1","4","p"
"48","10","2","p_kitty_where_2_03_1","cat","bird","0",FALSE,"6063","2015-05-08-11-28",20,"Female","47","2","13","p_kitty_where_2","1","p"
"49","11","2","p_shoe_hey_3_00_6","shoe","shoe","1",TRUE,"6273","2015-05-08-11-28",20,"Female","47","2","13","p_shoe_hey_2","6","p"
"50","12","2","p_ball_find_2_05_5","ball","ball","0",TRUE,"5364","2015-05-08-11-28",20,"Female","47","2","13","p_ball_find_2","5","p"
"51","13","2","r_book_which_2_00_4","book","book","0",TRUE,"6044","2015-05-08-11-28",20,"Female","47","2","13","r_book_which_1","4","r"
"52","14","2","r_ball_where_4_06_1","ball","ball","0",TRUE,"8763","2015-05-08-11-28",20,"Female","47","2","13","r_ball_where_4","1","r"
"53","15","2","p_book_where_2_01_2","book","car","0",FALSE,"12361","2015-05-08-11-28",20,"Female","47","2","13","p_book_where_2","2","p"
"54","16","2","p_kitty_hey_3_04_5","cat","cat","1",TRUE,"6956","2015-05-08-11-28",20,"Female","47","2","13","p_kitty_hey_3","5","p"
"55","17","2","r_love_car_3_22_5","car","car","0",TRUE,"7984","2015-05-08-11-28",20,"Female","47","2","13","r_love_car_3","5","r"
"56","18","2","r_doll_where_3_26_1","doll","doll","0",TRUE,"10269","2015-05-08-11-28",20,"Female","47","2","13","r_doll_where_3","1","r"
"57","19","2","p_bird_where_1_28_4","bird","bird","0",TRUE,"5597","2015-05-08-11-28",20,"Female","47","2","13","p_bird_where_1","4","p"
"58","20","2","r_love_shoes_3_17_5","shoe","ball","1",FALSE,"10101","2015-05-08-11-28",20,"Female","47","2","13","r_love_shoes_3","5","r"
"59","21","2","r_shoes_where_3_29_4","shoe","shoe","0",TRUE,"8008","2015-05-08-11-28",20,"Female","47","2","13","r_shoes_where_3","4","r"
"60","22","2","p_book_look_2_04_4","book","car","0",FALSE,"7541","2015-05-08-11-28",20,"Female","47","2","13","p_book_look_2","4","p"
"61","23","2","p_bear_look_2_01_5","bear","bear","1",TRUE,"8193","2015-05-08-11-28",20,"Female","47","2","13","p_bear_look_1","5","p"
"62","24","2","p_bird_look_1_25_2","bird","bird","0",TRUE,"6267","2015-05-08-11-28",20,"Female","47","2","13","p_bird_look_1","2","p"
"63","25","2","r_love_book_3_26_3","book","book","1",TRUE,"11113","2015-05-08-11-28",20,"Female","47","2","13","r_love_book_3","3","r"
"64","26","2","r_ball_which_2_04_5","ball","ball","1",TRUE,"6151","2015-05-08-11-28",20,"Female","47","2","13","r_ball_which_2","5","r"
"65","27","2","r_bear_which_1_28_6","bear","bear","0",TRUE,"5065","2015-05-08-11-28",20,"Female","47","2","13","r_bear_which_1","6","r"
"66","28","2","p_doll_find_2_01_4","doll","doll","0",TRUE,"6482","2015-05-08-11-28",20,"Female","47","2","13","p_doll_find_1","4","p"
"67","29","2","r_love_bear_3_20_4","bear","bear","1",TRUE,"7983","2015-05-08-11-28",20,"Female","47","2","13","r_love_bear_3","4","r"
"68","30","2","r_bear_where_4_03_1","bear","doll","1",FALSE,"10753","2015-05-08-11-28",20,"Female","47","2","13","r_bear_where_4","1","r"
"69","31","2","r_bird_where_4_11_6","bird","bird","0",TRUE,"9158","2015-05-08-11-28",20,"Female","47","2","13","r_bird_where_4","6","r"
"70","32","2","p_car_where_1_20_1","car","car","1",TRUE,"8118","2015-05-08-11-28",20,"Female","47","2","13","p_car_where_1","1","p"
"71","33","2","p_ball_where_1_23_3","ball","shoe","1",FALSE,"6797","2015-05-08-11-28",20,"Female","47","2","13","p_ball_where_1","3","p"
"72","34","2","r_book_where_4_03_1","book","book","1",TRUE,"9600","2015-05-08-11-28",20,"Female","47","2","13","r_book_where_4","1","r"
"73","35","2","r_love_cat_3_23_3","cat","cat","1",TRUE,"13523","2015-05-08-11-28",20,"Female","47","2","13","r_love_cat_3","3","r"
"74","36","2","r_love_bird_3_23_5","bird","bird","0",TRUE,"8466","2015-05-08-11-28",20,"Female","47","2","13","r_love_bird_3","5","r"
"75","37","2","r_cat_which_1_23_2","cat","cat","1",TRUE,"6153","2015-05-08-11-28",20,"Female","47","2","13","r_cat_which_1","2","r"
"76","38","2","p_shoe_where_1_21_4","shoe","shoe","0",TRUE,"6320","2015-05-08-11-28",20,"Female","47","2","13","p_shoe_where_1","4","p"
"77","1","3","p_bear_look_1_27_1","bear","bear","1",TRUE,"6051","2015-05-08-11-28",20,"Female","47","2","13","p_bear_look_1","1","p"
"78","2","3","p_book_where_2_03_4","book","book","0",TRUE,"8694","2015-05-08-11-28",20,"Female","47","2","13","p_book_where_2","4","p"
"79","3","3","r_love_bird_3_24_6","bird","bird","0",TRUE,"8354","2015-05-08-11-28",20,"Female","47","2","13","r_love_bird_3","6","r"
"80","4","3","p_bird_where_1_29_5","bird","bird","1",TRUE,"5704","2015-05-08-11-28",20,"Female","47","2","13","p_bird_where_1","5","p"
"81","5","3","r_love_doll_3_23_4","doll","doll","1",TRUE,"8285","2015-05-08-11-28",20,"Female","47","2","13","r_love_doll_3","4","r"
"82","6","3","r_shoes_which_1_27_6","shoe","shoe","0",TRUE,"6186","2015-05-08-11-28",20,"Female","47","2","13","r_shoes_which_1","6","r"
"83","7","3","r_cat_which_1_24_3","cat","cat","0",TRUE,"5390","2015-05-08-11-28",20,"Female","47","2","13","r_cat_which_1","3","r"
"84","8","3","r_ball_which_2_05_6","ball","ball","0",TRUE,"4965","2015-05-08-11-28",20,"Female","47","2","13","r_ball_which_2","6","r"
"85","9","3","r_shoes_where_3_27_2","shoe","ball","0",FALSE,"9183","2015-05-08-11-28",20,"Female","47","2","13","r_shoes_where_3","2","r"
"86","10","3","r_love_ball_3_17_1","ball","shoe","1",FALSE,"9677","2015-05-08-11-28",20,"Female","47","2","13","r_love_ball_3","1","r"
"87","11","3","p_kitty_where_2_05_3","cat","cat","1",TRUE,"11068","2015-05-08-11-28",20,"Female","47","2","13","p_kitty_where_2","3","p"
"88","12","3","r_love_bear_3_17_1","bear","doll","1",FALSE,"8733","2015-05-08-11-28",20,"Female","47","2","13","r_love_bear_3","1","r"
"89","13","3","p_ball_find_2_02_2","ball","shoe","0",FALSE,"6931","2015-05-08-11-28",20,"Female","47","2","13","p_ball_find_2","2","p"
"90","14","3","p_doll_where_1_24_1","doll","doll","1",TRUE,"6127","2015-05-08-11-28",20,"Female","47","2","13","p_doll_where_1","1","p"
"91","15","3","p_kitty_hey_3_03_4","cat","cat","0",TRUE,"7648","2015-05-08-11-28",20,"Female","47","2","13","p_kitty_hey_3","4","p"
"92","16","3","r_car_which_1_26_1","car","car","1",TRUE,"9170","2015-05-08-11-28",20,"Female","47","2","13","r_car_which_1","1","r"
"93","17","3","p_bear_where_1_25_1","bear","bear","1",TRUE,"5976","2015-05-08-11-28",20,"Female","47","2","13","p_bear_where_1","1","p"
"94","18","3","p_book_look_2_03_3","book","book","0",TRUE,"6607","2015-05-08-11-28",20,"Female","47","2","13","p_book_look_2","3","p"
"95","19","3","r_bear_which_1_25_3","bear","bear","0",TRUE,"6561","2015-05-08-11-28",20,"Female","47","2","13","r_bear_which_1","3","r"
"96","20","3","r_doll_which_1_20_1","doll","doll","0",TRUE,"9265","2015-05-08-11-28",20,"Female","47","2","13","r_doll_which_1","1","r"
"97","21","3","r_book_where_4_08_6","book","book","1",TRUE,"9154","2015-05-08-11-28",20,"Female","47","2","13","r_book_where_4","6","r"
"98","22","3","r_love_car_3_20_3","car","book","1",FALSE,"8927","2015-05-08-11-28",20,"Female","47","2","13","r_love_car_3","3","r"
"99","23","3","p_bird_look_1_27_4","bird","bird","0",TRUE,"11831","2015-05-08-11-28",20,"Female","47","2","13","p_bird_look_1","4","p"
"100","24","3","r_love_shoes_3_15_3","shoe","shoe","1",TRUE,"9694","2015-05-08-11-28",20,"Female","47","2","13","r_love_shoes_3","3","r"
"101","25","3","r_car_where_3_24_4","car","car","1",TRUE,"8444","2015-05-08-11-28",20,"Female","47","2","13","r_car_where_3","4","r"
"102","26","3","r_cat_where_4_01_4","cat","cat","0",TRUE,"8594","2015-05-08-11-28",20,"Female","47","2","13","r_cat_where_3","4","r"
"103","27","3","r_book_which_1_27_1","book","car","1",FALSE,"6237","2015-05-08-11-28",20,"Female","47","2","13","r_book_which_1","1","r"
"104","28","3","p_shoe_hey_2_27_3","shoe","ball","1",FALSE,"7289","2015-05-08-11-28",20,"Female","47","2","13","p_shoe_hey_2","3","p"
"105","29","3","p_doll_find_1_28_1","doll","doll","0",TRUE,"6731","2015-05-08-11-28",20,"Female","47","2","13","p_doll_find_1","1","p"
"106","30","3","p_ball_where_1_21_1","ball","shoe","0",FALSE,"5188","2015-05-08-11-28",20,"Female","47","2","13","p_ball_where_1","1","p"
"107","31","3","r_bird_where_4_10_5","bird","bird","0",TRUE,"9415","2015-05-08-11-28",20,"Female","47","2","13","r_bird_where_4","5","r"
"108","32","3","r_ball_where_4_09_4","ball","ball","0",TRUE,"9199","2015-05-08-11-28",20,"Female","47","2","13","r_ball_where_4","4","r"
"109","33","3","r_love_book_3_29_6","book","book","0",TRUE,"7397","2015-05-08-11-28",20,"Female","47","2","13","r_love_book_3","6","r"
"110","34","3","r_love_cat_3_22_2","cat","cat","1",TRUE,"7901","2015-05-08-11-28",20,"Female","47","2","13","r_love_cat_3","2","r"
"111","35","3","r_bear_where_4_04_2","bear","bear","0",TRUE,"11528","2015-05-08-11-28",20,"Female","47","2","13","r_bear_where_4","2","r"
"112","36","3","p_shoe_where_1_20_3","shoe","shoe","1",TRUE,"6236","2015-05-08-11-28",20,"Female","47","2","13","p_shoe_where_1","3","p"
"113","37","3","r_doll_where_4_00_5","doll","doll","0",TRUE,"8482","2015-05-08-11-28",20,"Female","47","2","13","r_doll_where_3","5","r"
"114","38","3","p_car_where_1_23_4","car","car","0",TRUE,"5926","2015-05-08-11-28",20,"Female","47","2","13","p_car_where_1","4","p"
"115","1","4","r_bear_which_1_23_1","bear","doll","1",FALSE,"7466","2015-05-08-11-28",20,"Female","47","2","13","r_bear_which_1","1","r"
"116","2","4","r_love_bird_3_21_3","bird","cat","1",FALSE,"8632","2015-05-08-11-28",20,"Female","47","2","13","r_love_bird_3","3","r"
"117","3","4","p_kitty_where_2_07_5","cat","cat","0",TRUE,"6871","2015-05-08-11-28",20,"Female","47","2","13","p_kitty_where_2","5","p"
"118","4","4","r_love_ball_3_22_6","ball","ball","0",TRUE,"8678","2015-05-08-11-28",20,"Female","47","2","13","r_love_ball_3","6","r"
"119","5","4","p_book_look_2_01_1","book","car","1",FALSE,"9374","2015-05-08-11-28",20,"Female","47","2","13","p_book_look_2","1","p"
"120","6","4","r_love_book_3_24_1","book","car","0",FALSE,"12432","2015-05-08-11-28",20,"Female","47","2","13","r_love_book_3","1","r"
"121","7","4","r_love_bear_3_21_5","bear","doll","1",FALSE,"11344","2015-05-08-11-28",20,"Female","47","2","13","r_love_bear_3","5","r"
"122","8","4","p_ball_where_1_25_5","ball","ball","0",TRUE,"6168","2015-05-08-11-28",20,"Female","47","2","13","p_ball_where_1","5","p"
"123","9","4","p_shoe_hey_2_29_5","shoe","shoe","1",TRUE,"6814","2015-05-08-11-28",20,"Female","47","2","13","p_shoe_hey_2","5","p"
"124","10","4","r_doll_which_1_22_3","doll","doll","0",TRUE,"5398","2015-05-08-11-28",20,"Female","47","2","13","r_doll_which_1","3","r"
"125","11","4","p_shoe_where_1_19_2","shoe","shoe","1",TRUE,"5829","2015-05-08-11-28",20,"Female","47","2","13","p_shoe_where_1","2","p"
"126","12","4","r_shoes_where_4_01_6","shoe","shoe","0",TRUE,"8891","2015-05-08-11-28",20,"Female","47","2","13","r_shoes_where_3","6","r"
"127","13","4","p_bird_look_1_24_1","bird","bird","1",TRUE,"6160","2015-05-08-11-28",20,"Female","47","2","13","p_bird_look_1","1","p"
"128","14","4","r_love_cat_3_21_1","cat","cat","0",TRUE,"8050","2015-05-08-11-28",20,"Female","47","2","13","r_love_cat_3","1","r"
"129","15","4","r_doll_where_3_27_2","doll","doll","1",TRUE,"9741","2015-05-08-11-28",20,"Female","47","2","13","r_doll_where_3","2","r"
"130","16","4","r_bear_where_4_06_4","bear","bear","1",TRUE,"8713","2015-05-08-11-28",20,"Female","47","2","13","r_bear_where_4","4","r"
"131","17","4","p_ball_find_2_04_4","ball","ball","0",TRUE,"6565","2015-05-08-11-28",20,"Female","47","2","13","p_ball_find_2","4","p"
"132","18","4","r_ball_where_4_11_6","ball","ball","0",TRUE,"8688","2015-05-08-11-28",20,"Female","47","2","13","r_ball_where_4","6","r"
"133","19","4","p_bird_where_1_25_1","bird","bird","0",TRUE,"9220","2015-05-08-11-28",20,"Female","47","2","13","p_bird_where_1","1","p"
"134","20","4","p_kitty_hey_3_00_1","cat","bird","1",FALSE,"11073","2015-05-08-11-28",20,"Female","47","2","13","p_kitty_hey_3","1","p"
"135","21","4","r_book_where_4_07_5","book","book","1",TRUE,"8555","2015-05-08-11-28",20,"Female","47","2","13","r_book_where_4","5","r"
"136","22","4","p_bear_look_2_02_6","bear","bear","1",TRUE,"7475","2015-05-08-11-28",20,"Female","47","2","13","p_bear_look_1","6","p"
"137","23","4","r_ball_which_2_02_3","ball","ball","0",TRUE,"6564","2015-05-08-11-28",20,"Female","47","2","13","r_ball_which_2","3","r"
"138","24","4","r_book_which_1_29_3","book","book","0",TRUE,"5006","2015-05-08-11-28",20,"Female","47","2","13","r_book_which_1","3","r"
"139","25","4","r_cat_where_4_02_5","cat","cat","0",TRUE,"8938","2015-05-08-11-28",20,"Female","47","2","13","r_cat_where_3","5","r"
"140","26","4","p_car_where_1_25_6","car","car","0",TRUE,"5943","2015-05-08-11-28",20,"Female","47","2","13","p_car_where_1","6","p"
"141","27","4","r_love_car_3_19_2","car","car","1",TRUE,"8522","2015-05-08-11-28",20,"Female","47","2","13","r_love_car_3","2","r"
"142","28","4","p_doll_where_1_29_6","doll","doll","0",TRUE,"6770","2015-05-08-11-28",20,"Female","47","2","13","p_doll_where_1","6","p"
"143","29","4","r_cat_which_1_22_1","cat","cat","0",TRUE,"5902","2015-05-08-11-28",20,"Female","47","2","13","r_cat_which_1","1","r"
"144","30","4","p_bear_where_1_29_5","bear","doll","1",FALSE,"6081","2015-05-08-11-28",20,"Female","47","2","13","p_bear_where_1","5","p"
"145","31","4","p_book_where_2_04_5","book","book","1",TRUE,"6593","2015-05-08-11-28",20,"Female","47","2","13","p_book_where_2","5","p"
"146","32","4","r_love_doll_3_24_5","doll","doll","1",TRUE,"7630","2015-05-08-11-28",20,"Female","47","2","13","r_love_doll_3","5","r"
"147","33","4","r_love_shoes_3_13_1","shoe","shoe","0",TRUE,"15480","2015-05-08-11-28",20,"Female","47","2","13","r_love_shoes_3","1","r"
"148","34","4","r_bird_where_4_09_4","bird","bird","1",TRUE,"9407","2015-05-08-11-28",20,"Female","47","2","13","r_bird_where_4","4","r"
"149","35","4","p_doll_find_2_02_5","doll","doll","0",TRUE,"6065","2015-05-08-11-28",20,"Female","47","2","13","p_doll_find_1","5","p"
"150","36","4","r_car_where_3_21_1","car","car","0",TRUE,"8396","2015-05-08-11-28",20,"Female","47","2","13","r_car_where_3","1","r"
"151","37","4","r_car_which_1_28_3","car","book","1",FALSE,"8585","2015-05-08-11-28",20,"Female","47","2","13","r_car_which_1","3","r"
"152","38","4","r_shoes_which_1_25_4","shoe","shoe","0",TRUE,"5378","2015-05-08-11-28",20,"Female","47","2","13","r_shoes_which_1","4","r"
"153","1","5","r_ball_which_2_03_4","ball","ball","0",TRUE,"13592","2015-05-08-11-28",20,"Female","47","2","13","r_ball_which_2","4","r"
"154","2","5","p_ball_find_2_01_1","ball","shoe","1",FALSE,"5769","2015-05-08-11-28",20,"Female","47","2","13","p_ball_find_2","1","p"
"155","3","5","p_shoe_hey_2_28_4","shoe","shoe","0",TRUE,"7415","2015-05-08-11-28",20,"Female","47","2","13","p_shoe_hey_2","4","p"
"156","4","5","r_shoes_which_1_22_1","shoe","shoe","0",TRUE,"5592","2015-05-08-11-28",20,"Female","47","2","13","r_shoes_which_1","1","r"
"157","5","5","r_cat_which_1_26_5","cat","cat","1",TRUE,"5664","2015-05-08-11-28",20,"Female","47","2","13","r_cat_which_1","5","r"
"158","6","5","r_book_which_2_02_6","book","car","1",FALSE,"9284","2015-05-08-11-28",20,"Female","47","2","13","r_book_which_1","6","r"
"159","7","5","p_car_where_1_24_5","car","car","1",TRUE,"5624","2015-05-08-11-28",20,"Female","47","2","13","p_car_where_1","5","p"
"160","8","5","r_book_where_4_04_2","book","book","1",TRUE,"9029","2015-05-08-11-28",20,"Female","47","2","13","r_book_where_4","2","r"
"161","9","5","r_bear_where_4_07_5","bear","bear","1",TRUE,"8736","2015-05-08-11-28",20,"Female","47","2","13","r_bear_where_4","5","r"
"162","10","5","p_book_where_2_00_1","book","car","0",FALSE,"9746","2015-05-08-11-28",20,"Female","47","2","13","p_book_where_2","1","p"
"163","11","5","r_love_doll_3_22_3","doll","doll","1",TRUE,"8543","2015-05-08-11-28",20,"Female","47","2","13","r_love_doll_3","3","r"
"164","12","5","p_kitty_hey_3_05_6","cat","cat","1",TRUE,"7550","2015-05-08-11-28",20,"Female","47","2","13","p_kitty_hey_3","6","p"
"165","13","5","r_love_ball_3_20_4","ball","shoe","1",FALSE,"10553","2015-05-08-11-28",20,"Female","47","2","13","r_love_ball_3","4","r"
"166","14","5","r_doll_which_1_23_4","doll","doll","1",TRUE,"5931","2015-05-08-11-28",20,"Female","47","2","13","r_doll_which_1","4","r"
"167","15","5","r_car_which_2_01_6","car","car","0",TRUE,"5694","2015-05-08-11-28",20,"Female","47","2","13","r_car_which_1","6","r"
"168","16","5","r_bird_where_4_07_2","bird","bird","1",TRUE,"8856","2015-05-08-11-28",20,"Female","47","2","13","r_bird_where_4","2","r"
"169","17","5","r_bear_which_1_27_5","bear","bear","0",TRUE,"6564","2015-05-08-11-28",20,"Female","47","2","13","r_bear_which_1","5","r"
"170","18","5","p_ball_where_1_22_2","ball","shoe","1",FALSE,"5132","2015-05-08-11-28",20,"Female","47","2","13","p_ball_where_1","2","p"
"171","19","5","p_bird_where_2_00_6","bird","bird","1",TRUE,"7379","2015-05-08-11-28",20,"Female","47","2","13","p_bird_where_1","6","p"
"172","20","5","r_shoes_where_3_28_3","shoe","ball","1",FALSE,"9106","2015-05-08-11-28",20,"Female","47","2","13","r_shoes_where_3","3","r"
"173","21","5","p_book_look_2_02_2","book","car","0",FALSE,"7411","2015-05-08-11-28",20,"Female","47","2","13","p_book_look_2","2","p"
"174","22","5","r_love_shoes_3_18_6","shoe","ball","0",FALSE,"9907","2015-05-08-11-28",20,"Female","47","2","13","r_love_shoes_3","6","r"
"175","23","5","r_cat_where_4_03_6","cat","cat","1",TRUE,"9201","2015-05-08-11-28",20,"Female","47","2","13","r_cat_where_3","6","r"
"176","24","5","r_love_cat_3_25_5","cat","cat","1",TRUE,"8361","2015-05-08-11-28",20,"Female","47","2","13","r_love_cat_3","5","r"
"177","25","5","p_shoe_where_1_23_6","shoe","shoe","0",TRUE,"5920","2015-05-08-11-28",20,"Female","47","2","13","p_shoe_where_1","6","p"
"178","26","5","p_bird_look_1_28_5","bird","bird","0",TRUE,"5850","2015-05-08-11-28",20,"Female","47","2","13","p_bird_look_1","5","p"
"179","27","5","r_ball_where_4_08_3","ball","ball","0",TRUE,"8017","2015-05-08-11-28",20,"Female","47","2","13","r_ball_where_4","3","r"
"180","28","5","p_bear_where_2_00_6","bear","bear","0",TRUE,"5715","2015-05-08-11-28",20,"Female","47","2","13","p_bear_where_1","6","p"
"181","29","5","r_love_bird_3_22_4","bird","cat","1",FALSE,"8722","2015-05-08-11-28",20,"Female","47","2","13","r_love_bird_3","4","r"
"182","30","5","r_car_where_3_25_5","car","car","1",TRUE,"8466","2015-05-08-11-28",20,"Female","47","2","13","r_car_where_3","5","r"
"183","31","5","r_love_car_3_18_1","car","car","0",TRUE,"9171","2015-05-08-11-28",20,"Female","47","2","13","r_love_car_3","1","r"
"184","32","5","p_doll_where_1_26_3","doll","doll","1",TRUE,"6003","2015-05-08-11-28",20,"Female","47","2","13","p_doll_where_1","3","p"
"185","33","5","p_doll_find_1_29_2","doll","doll","1",TRUE,"7412","2015-05-08-11-28",20,"Female","47","2","13","p_doll_find_1","2","p"
"186","34","5","r_love_bear_3_22_6","bear","bear","0",TRUE,"8055","2015-05-08-11-28",20,"Female","47","2","13","r_love_bear_3","6","r"
"187","35","5","p_bear_look_2_00_4","bear","bear","0",TRUE,"6363","2015-05-08-11-28",20,"Female","47","2","13","p_bear_look_1","4","p"
"188","36","5","r_love_book_3_25_2","book","car","1",FALSE,"8276","2015-05-08-11-28",20,"Female","47","2","13","r_love_book_3","2","r"
"189","37","5","p_kitty_where_2_04_2","cat","cat","1",TRUE,"14226","2015-05-08-11-28",20,"Female","47","2","13","p_kitty_where_2","2","p"
"190","38","5","r_doll_where_3_28_3","doll","doll","1",TRUE,"10227","2015-05-08-11-28",20,"Female","47","2","13","r_doll_where_3","3","r"
"191","1","6","r_book_which_2_01_5","book","book","0",TRUE,"6520","2015-05-08-11-28",20,"Female","47","2","13","r_book_which_1","5","r"
"192","2","6","p_ball_where_1_26_6","ball","ball","1",TRUE,"5703","2015-05-08-11-28",20,"Female","47","2","13","p_ball_where_1","6","p"
"193","3","6","r_love_cat_3_26_6","cat","cat","1",TRUE,"7471","2015-05-08-11-28",20,"Female","47","2","13","r_love_cat_3","6","r"
"194","4","6","p_book_where_2_05_6","book","book","1",TRUE,"6228","2015-05-08-11-28",20,"Female","47","2","13","p_book_where_2","6","p"
"195","5","6","r_cat_where_3_28_1","cat","cat","1",TRUE,"9076","2015-05-08-11-28",20,"Female","47","2","13","r_cat_where_3","1","r"
"196","6","6","r_love_shoes_3_16_4","shoe","ball","1",FALSE,"10404","2015-05-08-11-28",20,"Female","47","2","13","r_love_shoes_3","4","r"
"197","7","6","p_car_where_1_22_3","car","car","1",TRUE,"6798","2015-05-08-11-28",20,"Female","47","2","13","p_car_where_1","3","p"
"198","8","6","p_shoe_where_1_18_1","shoe","shoe","1",TRUE,"5747","2015-05-08-11-28",20,"Female","47","2","13","p_shoe_where_1","1","p"
"199","9","6","p_bear_look_1_28_2","bear","bear","0",TRUE,"7158","2015-05-08-11-28",20,"Female","47","2","13","p_bear_look_1","2","p"
"200","10","6","p_bird_where_1_26_2","bird","bird","1",TRUE,"8734","2015-05-08-11-28",20,"Female","47","2","13","p_bird_where_1","2","p"
"201","11","6","p_doll_find_2_00_3","doll","bear","1",FALSE,"6369","2015-05-08-11-28",20,"Female","47","2","13","p_doll_find_1","3","p"
"202","12","6","r_cat_which_1_25_4","cat","cat","0",TRUE,"4830","2015-05-08-11-28",20,"Female","47","2","13","r_cat_which_1","4","r"
"203","13","6","p_book_look_2_05_5","book","book","0",TRUE,"6578","2015-05-08-11-28",20,"Female","47","2","13","p_book_look_2","5","p"
"204","14","6","p_kitty_hey_3_02_3","cat","cat","0",TRUE,"8267","2015-05-08-11-28",20,"Female","47","2","13","p_kitty_hey_3","3","p"
"205","15","6","r_book_where_4_05_3","book","book","1",TRUE,"9167","2015-05-08-11-28",20,"Female","47","2","13","r_book_where_4","3","r"
"206","16","6","r_love_book_3_27_4","book","car","0",FALSE,"9253","2015-05-08-11-28",20,"Female","47","2","13","r_love_book_3","4","r"
"207","17","6","p_bird_look_1_29_6","bird","bird","1",TRUE,"5641","2015-05-08-11-28",20,"Female","47","2","13","p_bird_look_1","6","p"
"208","18","6","p_kitty_where_2_08_6","cat","cat","0",TRUE,"6214","2015-05-08-11-28",20,"Female","47","2","13","p_kitty_where_2","6","p"
"209","19","6","r_bear_which_1_26_4","bear","bear","1",TRUE,"6344","2015-05-08-11-28",20,"Female","47","2","13","r_bear_which_1","4","r"
"210","20","6","r_ball_where_4_07_2","ball","ball","1",TRUE,"8621","2015-05-08-11-28",20,"Female","47","2","13","r_ball_where_4","2","r"
"211","21","6","r_love_car_3_21_4","car","car","0",TRUE,"7961","2015-05-08-11-28",20,"Female","47","2","13","r_love_car_3","4","r"
"212","22","6","r_love_bear_3_18_2","bear","bear","1",TRUE,"10466","2015-05-08-11-28",20,"Female","47","2","13","r_love_bear_3","2","r"
"213","23","6","r_car_where_3_23_3","car","car","1",TRUE,"8927","2015-05-08-11-28",20,"Female","47","2","13","r_car_where_3","3","r"
"214","24","6","p_ball_find_2_03_3","ball","ball","0",TRUE,"6219","2015-05-08-11-28",20,"Female","47","2","13","p_ball_find_2","3","p"
"215","25","6","r_love_doll_3_20_1","doll","doll","0",TRUE,"9044","2015-05-08-11-28",20,"Female","47","2","13","r_love_doll_3","1","r"
"216","26","6","r_bear_where_4_05_3","bear","bear","1",TRUE,"9086","2015-05-08-11-28",20,"Female","47","2","13","r_bear_where_4","3","r"
"217","27","6","r_love_ball_3_21_5","ball","ball","0",TRUE,"13053","2015-05-08-11-28",20,"Female","47","2","13","r_love_ball_3","5","r"
"218","28","6","r_ball_which_2_00_1","ball","shoe","1",FALSE,"8859","2015-05-08-11-28",20,"Female","47","2","13","r_ball_which_2","1","r"
"219","29","6","p_bear_where_1_26_2","bear","bear","1",TRUE,"6744","2015-05-08-11-28",20,"Female","47","2","13","p_bear_where_1","2","p"
"220","30","6","r_car_which_1_29_4","car","car","0",TRUE,"5478","2015-05-08-11-28",20,"Female","47","2","13","r_car_which_1","4","r"
"221","31","6","r_doll_where_3_29_4","doll","doll","0",TRUE,"9022","2015-05-08-11-28",20,"Female","47","2","13","r_doll_where_3","4","r"
"222","32","6","p_doll_where_1_25_2","doll","doll","1",TRUE,"7117","2015-05-08-11-28",20,"Female","47","2","13","p_doll_where_1","2","p"
"223","33","6","r_doll_which_1_24_5","doll","doll","1",TRUE,"8368","2015-05-08-11-28",20,"Female","47","2","13","r_doll_which_1","5","r"
"224","34","6","p_shoe_hey_2_26_2","shoe","shoe","0",TRUE,"8756","2015-05-08-11-28",20,"Female","47","2","13","p_shoe_hey_2","2","p"
"225","35","6","r_shoes_where_4_00_5","shoe","shoe","1",TRUE,"9063","2015-05-08-11-28",20,"Female","47","2","13","r_shoes_where_3","5","r"
"226","36","6","r_love_bird_3_20_2","bird","cat","1",FALSE,"11044","2015-05-08-11-28",20,"Female","47","2","13","r_love_bird_3","2","r"
"227","37","6","r_shoes_which_1_24_3","shoe","shoe","0",TRUE,"6859","2015-05-08-11-28",20,"Female","47","2","13","r_shoes_which_1","3","r"
"228","38","6","r_bird_where_4_06_1","bird","bird","0",TRUE,"9599","2015-05-08-11-28",20,"Female","47","2","13","r_bird_where_4","1","r"
"1","1","1","r_love_shoes_3_16_4","shoe","ball","0",FALSE,"84846","2015-05-08-12-38",21,"Female","37","2","18 months","r_love_shoes_3","4","r"
"2","2","1","p_book_where_2_01_2","book","car","0",FALSE,"54043","2015-05-08-12-38",21,"Female","37","2","18 months","p_book_where_2","2","p"
"3","3","1","p_ball_find_2_06_6","ball","ball","1",TRUE,"5091","2015-05-08-12-38",21,"Female","37","2","18 months","p_ball_find_2","6","p"
"4","4","1","r_bird_where_4_07_2","bird","bird","0",TRUE,"8513","2015-05-08-12-38",21,"Female","37","2","18 months","r_bird_where_4","2","r"
"5","5","1","p_book_look_2_03_3","book","book","1",TRUE,"6114","2015-05-08-12-38",21,"Female","37","2","18 months","p_book_look_2","3","p"
"6","6","1","r_doll_which_1_22_3","doll","doll","0",TRUE,"6481","2015-05-08-12-38",21,"Female","37","2","18 months","r_doll_which_1","3","r"
"7","7","1","p_shoe_where_1_18_1","shoe","ball","1",FALSE,"4487","2015-05-08-12-38",21,"Female","37","2","18 months","p_shoe_where_1","1","p"
"8","8","1","p_car_where_1_21_2","car","book","1",FALSE,"5165","2015-05-08-12-38",21,"Female","37","2","18 months","p_car_where_1","2","p"
"9","9","1","r_love_car_3_19_2","car","book","0",FALSE,"8096","2015-05-08-12-38",21,"Female","37","2","18 months","r_love_car_3","2","r"
"10","10","1","r_ball_which_2_01_2","ball","shoe","0",FALSE,"4947","2015-05-08-12-38",21,"Female","37","2","18 months","r_ball_which_2","2","r"
"11","11","1","r_bear_which_1_28_6","bear","bear","0",TRUE,"4018","2015-05-08-12-38",21,"Female","37","2","18 months","r_bear_which_1","6","r"
"12","12","1","p_bear_look_2_01_5","bear","bear","0",TRUE,"4208","2015-05-08-12-38",21,"Female","37","2","18 months","p_bear_look_1","5","p"
"13","13","1","r_love_book_3_28_5","book","book","1",TRUE,"6371","2015-05-08-12-38",21,"Female","37","2","18 months","r_love_book_3","5","r"
"14","14","1","r_shoes_where_3_29_4","shoe","shoe","0",TRUE,"6674","2015-05-08-12-38",21,"Female","37","2","18 months","r_shoes_where_3","4","r"
"15","15","1","p_bear_where_2_00_6","bear","bear","0",TRUE,"4242","2015-05-08-12-38",21,"Female","37","2","18 months","p_bear_where_1","6","p"
"16","16","1","r_love_cat_3_23_3","cat","cat","0",TRUE,"6162","2015-05-08-12-38",21,"Female","37","2","18 months","r_love_cat_3","3","r"
"17","17","1","p_kitty_where_2_04_2","cat","cat","0",TRUE,"5586","2015-05-08-12-38",21,"Female","37","2","18 months","p_kitty_where_2","2","p"
"18","18","1","r_love_ball_3_19_3","ball","ball","0",TRUE,"6210","2015-05-08-12-38",21,"Female","37","2","18 months","r_love_ball_3","3","r"
"19","19","1","r_shoes_which_1_22_1","shoe","ball","0",FALSE,"4964","2015-05-08-12-38",21,"Female","37","2","18 months","r_shoes_which_1","1","r"
"20","20","1","r_love_doll_3_25_6","doll","bear","1",FALSE,"5954","2015-05-08-12-38",21,"Female","37","2","18 months","r_love_doll_3","6","r"
"21","21","1","r_book_which_2_01_5","book","book","0",TRUE,"5923","2015-05-08-12-38",21,"Female","37","2","18 months","r_book_which_1","5","r"
"22","22","1","p_shoe_hey_2_29_5","shoe","shoe","0",TRUE,"5345","2015-05-08-12-38",21,"Female","37","2","18 months","p_shoe_hey_2","5","p"
"23","23","1","p_ball_where_1_23_3","ball","ball","0",TRUE,"5890","2015-05-08-12-38",21,"Female","37","2","18 months","p_ball_where_1","3","p"
"24","24","1","r_bear_where_4_05_3","bear","bear","1",TRUE,"9298","2015-05-08-12-38",21,"Female","37","2","18 months","r_bear_where_4","3","r"
"25","25","1","r_cat_where_4_01_4","cat","bird","1",FALSE,"9810","2015-05-08-12-38",21,"Female","37","2","18 months","r_cat_where_3","4","r"
"26","26","1","r_love_bird_3_19_1","bird","bird","0",TRUE,"7825","2015-05-08-12-38",21,"Female","37","2","18 months","r_love_bird_3","1","r"
"27","27","1","r_love_bear_3_18_2","bear","bear","0",TRUE,"8773","2015-05-08-12-38",21,"Female","37","2","18 months","r_love_bear_3","2","r"
"28","28","1","p_bird_where_2_00_6","bird","bird","1",TRUE,"4722","2015-05-08-12-38",21,"Female","37","2","18 months","p_bird_where_1","6","p"
"29","29","1","p_bird_look_1_28_5","bird","bird","0",TRUE,"4467","2015-05-08-12-38",21,"Female","37","2","18 months","p_bird_look_1","5","p"
"30","30","1","p_doll_where_1_27_4","doll","doll","0",TRUE,"4371","2015-05-08-12-38",21,"Female","37","2","18 months","p_doll_where_1","4","p"
"31","31","1","r_car_which_1_29_4","car","car","1",TRUE,"4418","2015-05-08-12-38",21,"Female","37","2","18 months","r_car_which_1","4","r"
"32","32","1","p_kitty_hey_3_05_6","cat","cat","0",TRUE,"5362","2015-05-08-12-38",21,"Female","37","2","18 months","p_kitty_hey_3","6","p"
"33","33","1","r_book_where_4_07_5","book","book","0",TRUE,"7219","2015-05-08-12-38",21,"Female","37","2","18 months","r_book_where_4","5","r"
"34","34","1","r_car_where_3_23_3","car","car","1",TRUE,"7745","2015-05-08-12-38",21,"Female","37","2","18 months","r_car_where_3","3","r"
"35","35","1","p_doll_find_2_01_4","doll","doll","0",TRUE,"4419","2015-05-08-12-38",21,"Female","37","2","18 months","p_doll_find_1","4","p"
"36","36","1","r_doll_where_3_27_2","doll","doll","0",TRUE,"7505","2015-05-08-12-38",21,"Female","37","2","18 months","r_doll_where_3","2","r"
"37","37","1","r_cat_which_1_25_4","cat","cat","1",TRUE,"4434","2015-05-08-12-38",21,"Female","37","2","18 months","r_cat_which_1","4","r"
"38","38","1","r_ball_where_4_06_1","ball","ball","0",TRUE,"7169","2015-05-08-12-38",21,"Female","37","2","18 months","r_ball_where_4","1","r"
"39","1","2","p_car_where_1_20_1","car","book","0",FALSE,"5494","2015-05-08-12-38",21,"Female","37","2","18 months","p_car_where_1","1","p"
"40","2","2","r_book_where_4_04_2","book","book","0",TRUE,"8307","2015-05-08-12-38",21,"Female","37","2","18 months","r_book_where_4","2","r"
"41","3","2","r_love_cat_3_25_5","cat","cat","0",TRUE,"6755","2015-05-08-12-38",21,"Female","37","2","18 months","r_love_cat_3","5","r"
"42","4","2","r_bear_where_4_04_2","bear","bear","0",TRUE,"8802","2015-05-08-12-38",21,"Female","37","2","18 months","r_bear_where_4","2","r"
"43","5","2","p_book_where_2_02_3","book","book","1",TRUE,"5329","2015-05-08-12-38",21,"Female","37","2","18 months","p_book_where_2","3","p"
"44","6","2","p_ball_find_2_05_5","ball","ball","0",TRUE,"6195","2015-05-08-12-38",21,"Female","37","2","18 months","p_ball_find_2","5","p"
"45","7","2","r_bird_where_4_10_5","bird","bird","0",TRUE,"7282","2015-05-08-12-38",21,"Female","37","2","18 months","r_bird_where_4","5","r"
"46","8","2","r_car_where_3_24_4","car","car","1",TRUE,"7234","2015-05-08-12-38",21,"Female","37","2","18 months","r_car_where_3","4","r"
"47","9","2","p_shoe_hey_2_28_4","shoe","ball","1",FALSE,"5491","2015-05-08-12-38",21,"Female","37","2","18 months","p_shoe_hey_2","4","p"
"48","10","2","r_love_book_3_25_2","book","book","0",TRUE,"6419","2015-05-08-12-38",21,"Female","37","2","18 months","r_love_book_3","2","r"
"49","11","2","r_shoes_where_4_00_5","shoe","shoe","0",TRUE,"7409","2015-05-08-12-38",21,"Female","37","2","18 months","r_shoes_where_3","5","r"
"50","12","2","r_cat_which_1_23_2","cat","cat","0",TRUE,"3810","2015-05-08-12-38",21,"Female","37","2","18 months","r_cat_which_1","2","r"
"51","13","2","r_doll_where_3_29_4","doll","doll","1",TRUE,"6611","2015-05-08-12-38",21,"Female","37","2","18 months","r_doll_where_3","4","r"
"52","14","2","r_cat_where_4_03_6","cat","cat","0",TRUE,"9172","2015-05-08-12-38",21,"Female","37","2","18 months","r_cat_where_3","6","r"
"53","15","2","p_book_look_2_01_1","book","book","0",TRUE,"5714","2015-05-08-12-38",21,"Female","37","2","18 months","p_book_look_2","1","p"
"54","16","2","p_shoe_where_1_20_3","shoe","shoe","1",TRUE,"3730","2015-05-08-12-38",21,"Female","37","2","18 months","p_shoe_where_1","3","p"
"55","17","2","p_kitty_where_2_07_5","cat","cat","1",TRUE,"4482","2015-05-08-12-38",21,"Female","37","2","18 months","p_kitty_where_2","5","p"
"56","18","2","r_love_bird_3_21_3","bird","bird","0",TRUE,"7074","2015-05-08-12-38",21,"Female","37","2","18 months","r_love_bird_3","3","r"
"57","19","2","r_bear_which_1_24_2","bear","bear","1",TRUE,"4755","2015-05-08-12-38",21,"Female","37","2","18 months","r_bear_which_1","2","r"
"58","20","2","r_love_doll_3_22_3","doll","doll","1",TRUE,"7139","2015-05-08-12-38",21,"Female","37","2","18 months","r_love_doll_3","3","r"
"59","21","2","p_doll_where_1_29_6","doll","doll","1",TRUE,"4162","2015-05-08-12-38",21,"Female","37","2","18 months","p_doll_where_1","6","p"
"60","22","2","r_love_ball_3_20_4","ball","shoe","1",FALSE,"8081","2015-05-08-12-38",21,"Female","37","2","18 months","r_love_ball_3","4","r"
"61","23","2","p_kitty_hey_3_00_1","cat","bird","1",FALSE,"6579","2015-05-08-12-38",21,"Female","37","2","18 months","p_kitty_hey_3","1","p"
"62","24","2","p_bird_where_1_26_2","bird","bird","1",TRUE,"5379","2015-05-08-12-38",21,"Female","37","2","18 months","p_bird_where_1","2","p"
"63","25","2","r_love_car_3_23_6","car","car","1",TRUE,"6275","2015-05-08-12-38",21,"Female","37","2","18 months","r_love_car_3","6","r"
"64","26","2","r_doll_which_1_23_4","doll","doll","0",TRUE,"4721","2015-05-08-12-38",21,"Female","37","2","18 months","r_doll_which_1","4","r"
"65","27","2","r_love_bear_3_22_6","bear","bear","1",TRUE,"8770","2015-05-08-12-38",21,"Female","37","2","18 months","r_love_bear_3","6","r"
"66","28","2","p_ball_where_1_21_1","ball","ball","1",TRUE,"4848","2015-05-08-12-38",21,"Female","37","2","18 months","p_ball_where_1","1","p"
"67","29","2","r_shoes_which_1_25_4","shoe","shoe","1",TRUE,"3954","2015-05-08-12-38",21,"Female","37","2","18 months","r_shoes_which_1","4","r"
"68","30","2","r_book_which_1_28_2","book","book","0",TRUE,"3953","2015-05-08-12-38",21,"Female","37","2","18 months","r_book_which_1","2","r"
"69","31","2","p_bear_look_1_27_1","bear","bear","1",TRUE,"5363","2015-05-08-12-38",21,"Female","37","2","18 months","p_bear_look_1","1","p"
"70","32","2","p_bear_where_1_26_2","bear","bear","1",TRUE,"5266","2015-05-08-12-38",21,"Female","37","2","18 months","p_bear_where_1","2","p"
"71","33","2","r_car_which_1_28_3","car","car","0",TRUE,"3846","2015-05-08-12-38",21,"Female","37","2","18 months","r_car_which_1","3","r"
"72","34","2","p_bird_look_1_29_6","bird","bird","1",TRUE,"4864","2015-05-08-12-38",21,"Female","37","2","18 months","p_bird_look_1","6","p"
"73","35","2","r_love_shoes_3_14_2","shoe","ball","1",FALSE,"6705","2015-05-08-12-38",21,"Female","37","2","18 months","r_love_shoes_3","2","r"
"74","36","2","r_ball_where_4_09_4","ball","ball","1",TRUE,"7268","2015-05-08-12-38",21,"Female","37","2","18 months","r_ball_where_4","4","r"
"75","37","2","p_doll_find_1_28_1","doll","doll","0",TRUE,"5185","2015-05-08-12-38",21,"Female","37","2","18 months","p_doll_find_1","1","p"
"76","38","2","r_ball_which_2_03_4","ball","ball","1",TRUE,"3970","2015-05-08-12-38",21,"Female","37","2","18 months","r_ball_which_2","4","r"
"77","1","3","p_doll_find_2_00_3","doll","doll","1",TRUE,"4301","2015-05-08-12-38",21,"Female","37","2","18 months","p_doll_find_1","3","p"
"78","2","3","p_book_look_2_04_4","book","book","1",TRUE,"4946","2015-05-08-12-38",21,"Female","37","2","18 months","p_book_look_2","4","p"
"79","3","3","r_love_bear_3_20_4","bear","bear","0",TRUE,"5924","2015-05-08-12-38",21,"Female","37","2","18 months","r_love_bear_3","4","r"
"80","4","3","r_cat_which_1_22_1","cat","cat","0",TRUE,"4851","2015-05-08-12-38",21,"Female","37","2","18 months","r_cat_which_1","1","r"
"81","5","3","p_bear_look_1_28_2","bear","bear","1",TRUE,"4274","2015-05-08-12-38",21,"Female","37","2","18 months","p_bear_look_1","2","p"
"82","6","3","p_kitty_where_2_08_6","cat","cat","1",TRUE,"4164","2015-05-08-12-38",21,"Female","37","2","18 months","p_kitty_where_2","6","p"
"83","7","3","p_ball_find_2_03_3","ball","ball","1",TRUE,"3921","2015-05-08-12-38",21,"Female","37","2","18 months","p_ball_find_2","3","p"
"84","8","3","r_book_where_4_05_3","book","book","1",TRUE,"7922","2015-05-08-12-38",21,"Female","37","2","18 months","r_book_where_4","3","r"
"85","9","3","r_doll_which_1_21_2","doll","doll","1",TRUE,"4276","2015-05-08-12-38",21,"Female","37","2","18 months","r_doll_which_1","2","r"
"86","10","3","r_car_which_1_26_1","car","car","0",TRUE,"5312","2015-05-08-12-38",21,"Female","37","2","18 months","r_car_which_1","1","r"
"87","11","3","r_love_book_3_27_4","book","book","1",TRUE,"6418","2015-05-08-12-38",21,"Female","37","2","18 months","r_love_book_3","4","r"
"88","12","3","r_bear_where_4_07_5","bear","bear","1",TRUE,"7044","2015-05-08-12-38",21,"Female","37","2","18 months","r_bear_where_4","5","r"
"89","13","3","p_bird_look_1_25_2","bird","bird","1",TRUE,"5009","2015-05-08-12-38",21,"Female","37","2","18 months","p_bird_look_1","2","p"
"90","14","3","r_ball_which_2_00_1","ball","ball","0",TRUE,"5446","2015-05-08-12-38",21,"Female","37","2","18 months","r_ball_which_2","1","r"
"91","15","3","r_shoes_which_1_24_3","shoe","shoe","1",TRUE,"4706","2015-05-08-12-38",21,"Female","37","2","18 months","r_shoes_which_1","3","r"
"92","16","3","r_love_cat_3_26_6","cat","cat","1",TRUE,"6946","2015-05-08-12-38",21,"Female","37","2","18 months","r_love_cat_3","6","r"
"93","17","3","r_bird_where_4_11_6","bird","bird","1",TRUE,"7267","2015-05-08-12-38",21,"Female","37","2","18 months","r_bird_where_4","6","r"
"94","18","3","r_love_shoes_3_17_5","shoe","shoe","0",TRUE,"7089","2015-05-08-12-38",21,"Female","37","2","18 months","r_love_shoes_3","5","r"
"95","19","3","r_car_where_3_26_6","car","car","0",TRUE,"7587","2015-05-08-12-38",21,"Female","37","2","18 months","r_car_where_3","6","r"
"96","20","3","r_love_bird_3_24_6","bird","bird","1",TRUE,"6450","2015-05-08-12-38",21,"Female","37","2","18 months","r_love_bird_3","6","r"
"97","21","3","p_doll_where_1_26_3","doll","doll","0",TRUE,"4099","2015-05-08-12-38",21,"Female","37","2","18 months","p_doll_where_1","3","p"
"98","22","3","p_bird_where_1_29_5","bird","bird","0",TRUE,"4001","2015-05-08-12-38",21,"Female","37","2","18 months","p_bird_where_1","5","p"
"99","23","3","r_doll_where_3_28_3","doll","doll","1",TRUE,"7108","2015-05-08-12-38",21,"Female","37","2","18 months","r_doll_where_3","3","r"
"100","24","3","p_shoe_where_1_19_2","shoe","shoe","1",TRUE,"3699","2015-05-08-12-38",21,"Female","37","2","18 months","p_shoe_where_1","2","p"
"101","25","3","r_shoes_where_3_27_2","shoe","ball","1",FALSE,"8258","2015-05-08-12-38",21,"Female","37","2","18 months","r_shoes_where_3","2","r"
"102","26","3","p_shoe_hey_2_25_1","shoe","ball","0",FALSE,"5571","2015-05-08-12-38",21,"Female","37","2","18 months","p_shoe_hey_2","1","p"
"103","27","3","p_car_where_1_23_4","car","car","1",TRUE,"4003","2015-05-08-12-38",21,"Female","37","2","18 months","p_car_where_1","4","p"
"104","28","3","r_bear_which_1_27_5","bear","bear","0",TRUE,"3875","2015-05-08-12-38",21,"Female","37","2","18 months","r_bear_which_1","5","r"
"105","29","3","r_love_ball_3_21_5","ball","ball","0",TRUE,"6673","2015-05-08-12-38",21,"Female","37","2","18 months","r_love_ball_3","5","r"
"106","30","3","r_ball_where_4_10_5","ball","ball","1",TRUE,"7331","2015-05-08-12-38",21,"Female","37","2","18 months","r_ball_where_4","5","r"
"107","31","3","p_bear_where_1_28_4","bear","bear","1",TRUE,"4865","2015-05-08-12-38",21,"Female","37","2","18 months","p_bear_where_1","4","p"
"108","32","3","r_love_doll_3_23_4","doll","doll","0",TRUE,"6371","2015-05-08-12-38",21,"Female","37","2","18 months","r_love_doll_3","4","r"
"109","33","3","r_love_car_3_21_4","car","car","1",TRUE,"6590","2015-05-08-12-38",21,"Female","37","2","18 months","r_love_car_3","4","r"
"110","34","3","p_ball_where_1_24_4","ball","ball","0",TRUE,"4485","2015-05-08-12-38",21,"Female","37","2","18 months","p_ball_where_1","4","p"
"111","35","3","r_book_which_1_29_3","book","book","0",TRUE,"4499","2015-05-08-12-38",21,"Female","37","2","18 months","r_book_which_1","3","r"
"112","36","3","r_cat_where_4_02_5","cat","cat","1",TRUE,"9714","2015-05-08-12-38",21,"Female","37","2","18 months","r_cat_where_3","5","r"
"113","37","3","p_kitty_hey_3_04_5","cat","cat","0",TRUE,"6659","2015-05-08-12-38",21,"Female","37","2","18 months","p_kitty_hey_3","5","p"
"114","38","3","p_book_where_2_03_4","book","book","1",TRUE,"4145","2015-05-08-12-38",21,"Female","37","2","18 months","p_book_where_2","4","p"
"115","1","4","p_bear_where_1_29_5","bear","bear","1",TRUE,"4326","2015-05-08-12-38",21,"Female","37","2","18 months","p_bear_where_1","5","p"
"116","2","4","p_book_look_2_05_5","book","book","0",TRUE,"4193","2015-05-08-12-38",21,"Female","37","2","18 months","p_book_look_2","5","p"
"117","3","4","r_love_ball_3_17_1","ball","ball","0",TRUE,"6725","2015-05-08-12-38",21,"Female","37","2","18 months","r_love_ball_3","1","r"
"118","4","4","r_love_car_3_22_5","car","car","0",TRUE,"6882","2015-05-08-12-38",21,"Female","37","2","18 months","r_love_car_3","5","r"
"119","5","4","p_kitty_hey_3_01_2","cat","cat","0",TRUE,"5858","2015-05-08-12-38",21,"Female","37","2","18 months","p_kitty_hey_3","2","p"
"120","6","4","p_ball_where_1_22_2","ball","shoe","0",FALSE,"5075","2015-05-08-12-38",21,"Female","37","2","18 months","p_ball_where_1","2","p"
"121","7","4","r_cat_which_1_26_5","cat","cat","0",TRUE,"3875","2015-05-08-12-38",21,"Female","37","2","18 months","r_cat_which_1","5","r"
"122","8","4","r_love_bear_3_19_3","bear","bear","0",TRUE,"5953","2015-05-08-12-38",21,"Female","37","2","18 months","r_love_bear_3","3","r"
"123","9","4","r_love_cat_3_22_2","cat","cat","1",TRUE,"6594","2015-05-08-12-38",21,"Female","37","2","18 months","r_love_cat_3","2","r"
"124","10","4","p_car_where_1_24_5","car","car","1",TRUE,"3889","2015-05-08-12-38",21,"Female","37","2","18 months","p_car_where_1","5","p"
"125","11","4","r_doll_which_1_25_6","doll","doll","0",TRUE,"4547","2015-05-08-12-38",21,"Female","37","2","18 months","r_doll_which_1","6","r"
"126","12","4","r_bird_where_4_06_1","bird","bird","0",TRUE,"9285","2015-05-08-12-38",21,"Female","37","2","18 months","r_bird_where_4","1","r"
"127","13","4","r_ball_which_2_02_3","ball","ball","1",TRUE,"4642","2015-05-08-12-38",21,"Female","37","2","18 months","r_ball_which_2","3","r"
"128","14","4","r_love_shoes_3_18_6","shoe","shoe","0",TRUE,"6355","2015-05-08-12-38",21,"Female","37","2","18 months","r_love_shoes_3","6","r"
"129","15","4","p_shoe_hey_2_27_3","shoe","shoe","0",TRUE,"5794","2015-05-08-12-38",21,"Female","37","2","18 months","p_shoe_hey_2","3","p"
"130","16","4","p_ball_find_2_02_2","ball","shoe","1",FALSE,"5218","2015-05-08-12-38",21,"Female","37","2","18 months","p_ball_find_2","2","p"
"131","17","4","r_ball_where_4_07_2","ball","ball","1",TRUE,"7427","2015-05-08-12-38",21,"Female","37","2","18 months","r_ball_where_4","2","r"
"132","18","4","p_bear_look_2_02_6","bear","bear","0",TRUE,"3953","2015-05-08-12-38",21,"Female","37","2","18 months","p_bear_look_1","6","p"
"133","19","4","r_book_which_2_00_4","book","book","0",TRUE,"4128","2015-05-08-12-38",21,"Female","37","2","18 months","r_book_which_1","4","r"
"134","20","4","r_bear_which_1_25_3","bear","bear","1",TRUE,"3939","2015-05-08-12-38",21,"Female","37","2","18 months","r_bear_which_1","3","r"
"135","21","4","p_kitty_where_2_03_1","cat","cat","0",TRUE,"4161","2015-05-08-12-38",21,"Female","37","2","18 months","p_kitty_where_2","1","p"
"136","22","4","r_love_bird_3_22_4","bird","bird","1",TRUE,"6757","2015-05-08-12-38",21,"Female","37","2","18 months","r_love_bird_3","4","r"
"137","23","4","p_doll_where_1_24_1","doll","doll","1",TRUE,"4307","2015-05-08-12-38",21,"Female","37","2","18 months","p_doll_where_1","1","p"
"138","24","4","r_cat_where_3_28_1","cat","cat","1",TRUE,"7075","2015-05-08-12-38",21,"Female","37","2","18 months","r_cat_where_3","1","r"
"139","25","4","r_love_book_3_24_1","book","car","1",FALSE,"8035","2015-05-08-12-38",21,"Female","37","2","18 months","r_love_book_3","1","r"
"140","26","4","p_doll_find_2_02_5","doll","doll","0",TRUE,"3970","2015-05-08-12-38",21,"Female","37","2","18 months","p_doll_find_1","5","p"
"141","27","4","r_love_doll_3_24_5","doll","doll","1",TRUE,"7809","2015-05-08-12-38",21,"Female","37","2","18 months","r_love_doll_3","5","r"
"142","28","4","p_bird_look_1_24_1","bird","bird","0",TRUE,"4546","2015-05-08-12-38",21,"Female","37","2","18 months","p_bird_look_1","1","p"
"143","29","4","p_bird_where_1_27_3","bird","bird","1",TRUE,"4257","2015-05-08-12-38",21,"Female","37","2","18 months","p_bird_where_1","3","p"
"144","30","4","r_bear_where_4_08_6","bear","bear","0",TRUE,"6643","2015-05-08-12-38",21,"Female","37","2","18 months","r_bear_where_4","6","r"
"145","31","4","r_doll_where_4_01_6","doll","doll","1",TRUE,"6883","2015-05-08-12-38",21,"Female","37","2","18 months","r_doll_where_3","6","r"
"146","32","4","r_shoes_where_4_01_6","shoe","shoe","1",TRUE,"7010","2015-05-08-12-38",21,"Female","37","2","18 months","r_shoes_where_3","6","r"
"147","33","4","r_book_where_4_03_1","book","book","1",TRUE,"8273","2015-05-08-12-38",21,"Female","37","2","18 months","r_book_where_4","1","r"
"148","34","4","r_shoes_which_1_26_5","shoe","shoe","1",TRUE,"3874","2015-05-08-12-38",21,"Female","37","2","18 months","r_shoes_which_1","5","r"
"149","35","4","p_shoe_where_1_22_5","shoe","shoe","1",TRUE,"3602","2015-05-08-12-38",21,"Female","37","2","18 months","p_shoe_where_1","5","p"
"150","36","4","p_book_where_2_00_1","book","book","0",TRUE,"3970","2015-05-08-12-38",21,"Female","37","2","18 months","p_book_where_2","1","p"
"151","37","4","r_car_where_3_21_1","car","car","1",TRUE,"7890","2015-05-08-12-38",21,"Female","37","2","18 months","r_car_where_3","1","r"
"152","38","4","r_car_which_2_00_5","car","car","0",TRUE,"3827","2015-05-08-12-38",21,"Female","37","2","18 months","r_car_which_1","5","r"
"153","1","5","r_ball_which_2_04_5","ball","ball","1",TRUE,"4885","2015-05-08-12-38",21,"Female","37","2","18 months","r_ball_which_2","5","r"
"154","2","5","r_shoes_where_3_28_3","shoe","shoe","0",TRUE,"9190","2015-05-08-12-38",21,"Female","37","2","18 months","r_shoes_where_3","3","r"
"155","3","5","p_doll_where_1_25_2","doll","doll","1",TRUE,"5698","2015-05-08-12-38",21,"Female","37","2","18 months","p_doll_where_1","2","p"
"156","4","5","p_ball_find_2_01_1","ball","shoe","1",FALSE,"4481","2015-05-08-12-38",21,"Female","37","2","18 months","p_ball_find_2","1","p"
"157","5","5","r_bear_where_4_03_1","bear","bear","1",TRUE,"9252","2015-05-08-12-38",21,"Female","37","2","18 months","r_bear_where_4","1","r"
"158","6","5","r_love_cat_3_24_4","cat","cat","1",TRUE,"8562","2015-05-08-12-38",21,"Female","37","2","18 months","r_love_cat_3","4","r"
"159","7","5","p_book_where_2_04_5","book","book","0",TRUE,"5155","2015-05-08-12-38",21,"Female","37","2","18 months","p_book_where_2","5","p"
"160","8","5","p_kitty_hey_3_03_4","cat","cat","1",TRUE,"5250","2015-05-08-12-38",21,"Female","37","2","18 months","p_kitty_hey_3","4","p"
"161","9","5","p_bear_where_1_27_3","bear","bear","0",TRUE,"3651","2015-05-08-12-38",21,"Female","37","2","18 months","p_bear_where_1","3","p"
"162","10","5","r_love_shoes_3_13_1","shoe","ball","0",FALSE,"6755","2015-05-08-12-38",21,"Female","37","2","18 months","r_love_shoes_3","1","r"
"163","11","5","p_kitty_where_2_06_4","cat","cat","1",TRUE,"4597","2015-05-08-12-38",21,"Female","37","2","18 months","p_kitty_where_2","4","p"
"164","12","5","r_doll_where_4_00_5","doll","doll","0",TRUE,"6595","2015-05-08-12-38",21,"Female","37","2","18 months","r_doll_where_3","5","r"
"165","13","5","r_book_where_4_08_6","book","book","1",TRUE,"7297","2015-05-08-12-38",21,"Female","37","2","18 months","r_book_where_4","6","r"
"166","14","5","r_bear_which_1_23_1","bear","bear","0",TRUE,"4579","2015-05-08-12-38",21,"Female","37","2","18 months","r_bear_which_1","1","r"
"167","15","5","r_love_ball_3_22_6","ball","ball","1",TRUE,"7330","2015-05-08-12-38",21,"Female","37","2","18 months","r_love_ball_3","6","r"
"168","16","5","r_love_book_3_26_3","book","book","0",TRUE,"6482","2015-05-08-12-38",21,"Female","37","2","18 months","r_love_book_3","3","r"
"169","17","5","r_car_which_2_01_6","car","car","0",TRUE,"3969","2015-05-08-12-38",21,"Female","37","2","18 months","r_car_which_1","6","r"
"170","18","5","p_doll_find_1_29_2","doll","doll","0",TRUE,"4323","2015-05-08-12-38",21,"Female","37","2","18 months","p_doll_find_1","2","p"
"171","19","5","r_ball_where_4_08_3","ball","ball","1",TRUE,"7235","2015-05-08-12-38",21,"Female","37","2","18 months","r_ball_where_4","3","r"
"172","20","5","r_cat_where_4_00_3","cat","cat","0",TRUE,"8933","2015-05-08-12-38",21,"Female","37","2","18 months","r_cat_where_3","3","r"
"173","21","5","r_cat_which_1_27_6","cat","cat","0",TRUE,"4034","2015-05-08-12-38",21,"Female","37","2","18 months","r_cat_which_1","6","r"
"174","22","5","r_love_doll_3_20_1","doll","doll","1",TRUE,"7138","2015-05-08-12-38",21,"Female","37","2","18 months","r_love_doll_3","1","r"
"175","23","5","p_ball_where_1_25_5","ball","ball","1",TRUE,"4001","2015-05-08-12-38",21,"Female","37","2","18 months","p_ball_where_1","5","p"
"176","24","5","p_bird_where_1_28_4","bird","bird","0",TRUE,"3714","2015-05-08-12-38",21,"Female","37","2","18 months","p_bird_where_1","4","p"
"177","25","5","r_love_bear_3_21_5","bear","bear","0",TRUE,"6115","2015-05-08-12-38",21,"Female","37","2","18 months","r_love_bear_3","5","r"
"178","26","5","r_love_bird_3_23_5","bird","bird","1",TRUE,"7361","2015-05-08-12-38",21,"Female","37","2","18 months","r_love_bird_3","5","r"
"179","27","5","p_book_look_2_06_6","book","book","0",TRUE,"4771","2015-05-08-12-38",21,"Female","37","2","18 months","p_book_look_2","6","p"
"180","28","5","p_shoe_where_1_21_4","shoe","shoe","1",TRUE,"3683","2015-05-08-12-38",21,"Female","37","2","18 months","p_shoe_where_1","4","p"
"181","29","5","r_doll_which_1_24_5","doll","doll","0",TRUE,"5106","2015-05-08-12-38",21,"Female","37","2","18 months","r_doll_which_1","5","r"
"182","30","5","p_bird_look_1_27_4","bird","bird","0",TRUE,"4309","2015-05-08-12-38",21,"Female","37","2","18 months","p_bird_look_1","4","p"
"183","31","5","r_car_where_3_22_2","car","car","0",TRUE,"7554","2015-05-08-12-38",21,"Female","37","2","18 months","r_car_where_3","2","r"
"184","32","5","p_car_where_1_25_6","car","car","1",TRUE,"4034","2015-05-08-12-38",21,"Female","37","2","18 months","p_car_where_1","6","p"
"185","33","5","r_love_car_3_20_3","car","car","0",TRUE,"6115","2015-05-08-12-38",21,"Female","37","2","18 months","r_love_car_3","3","r"
"186","34","5","r_book_which_2_02_6","book","book","0",TRUE,"4257","2015-05-08-12-38",21,"Female","37","2","18 months","r_book_which_1","6","r"
"187","35","5","r_bird_where_4_08_3","bird","bird","1",TRUE,"7154","2015-05-08-12-38",21,"Female","37","2","18 months","r_bird_where_4","3","r"
"188","36","5","r_shoes_which_1_27_6","shoe","shoe","0",TRUE,"3985","2015-05-08-12-38",21,"Female","37","2","18 months","r_shoes_which_1","6","r"
"189","37","5","p_bear_look_1_29_3","bear","bear","1",TRUE,"3953","2015-05-08-12-38",21,"Female","37","2","18 months","p_bear_look_1","3","p"
"190","38","5","p_shoe_hey_2_26_2","shoe","ball","1",FALSE,"6050","2015-05-08-12-38",21,"Female","37","2","18 months","p_shoe_hey_2","2","p"
"191","1","6","r_bird_where_4_09_4","bird","bird","1",TRUE,"7225","2015-05-08-12-38",21,"Female","37","2","18 months","r_bird_where_4","4","r"
"192","2","6","r_love_book_3_29_6","book","book","0",TRUE,"6386","2015-05-08-12-38",21,"Female","37","2","18 months","r_love_book_3","6","r"
"193","3","6","r_doll_where_3_26_1","doll","doll","1",TRUE,"7585","2015-05-08-12-38",21,"Female","37","2","18 months","r_doll_where_3","1","r"
"194","4","6","r_book_which_1_27_1","book","car","1",FALSE,"5314","2015-05-08-12-38",21,"Female","37","2","18 months","r_book_which_1","1","r"
"195","5","6","p_shoe_hey_3_00_6","shoe","shoe","0",TRUE,"5044","2015-05-08-12-38",21,"Female","37","2","18 months","p_shoe_hey_2","6","p"
"196","6","6","r_book_where_4_06_4","book","book","1",TRUE,"6721","2015-05-08-12-38",21,"Female","37","2","18 months","r_book_where_4","4","r"
"197","7","6","r_cat_where_3_29_2","cat","bird","1",FALSE,"8434","2015-05-08-12-38",21,"Female","37","2","18 months","r_cat_where_3","2","r"
"198","8","6","r_shoes_which_1_23_2","shoe","shoe","0",TRUE,"4130","2015-05-08-12-38",21,"Female","37","2","18 months","r_shoes_which_1","2","r"
"199","9","6","r_ball_which_2_05_6","ball","ball","1",TRUE,"3809","2015-05-08-12-38",21,"Female","37","2","18 months","r_ball_which_2","6","r"
"200","10","6","r_love_bear_3_17_1","bear","bear","0",TRUE,"7365","2015-05-08-12-38",21,"Female","37","2","18 months","r_love_bear_3","1","r"
"201","11","6","p_bear_look_2_00_4","bear","bear","1",TRUE,"4146","2015-05-08-12-38",21,"Female","37","2","18 months","p_bear_look_1","4","p"
"202","12","6","r_car_where_3_25_5","car","car","0",TRUE,"6338","2015-05-08-12-38",21,"Female","37","2","18 months","r_car_where_3","5","r"
"203","13","6","r_shoes_where_3_26_1","shoe","shoe","1",TRUE,"12193","2015-05-08-12-38",21,"Female","37","2","18 months","r_shoes_where_3","1","r"
"204","14","6","r_love_ball_3_18_2","ball","shoe","0",FALSE,"8323","2015-05-08-12-38",21,"Female","37","2","18 months","r_love_ball_3","2","r"
"205","15","6","p_ball_where_1_26_6","ball","ball","1",TRUE,"4754","2015-05-08-12-38",21,"Female","37","2","18 months","p_ball_where_1","6","p"
"206","16","6","r_ball_where_4_11_6","ball","ball","0",TRUE,"7138","2015-05-08-12-38",21,"Female","37","2","18 months","r_ball_where_4","6","r"
"207","17","6","r_love_cat_3_21_1","cat","cat","1",TRUE,"6449","2015-05-08-12-38",21,"Female","37","2","18 months","r_love_cat_3","1","r"
"208","18","6","r_bear_where_4_06_4","bear","bear","1",TRUE,"7382","2015-05-08-12-38",21,"Female","37","2","18 months","r_bear_where_4","4","r"
"209","19","6","r_love_car_3_18_1","car","car","1",TRUE,"6609","2015-05-08-12-38",21,"Female","37","2","18 months","r_love_car_3","1","r"
"210","20","6","p_shoe_where_1_23_6","shoe","shoe","0",TRUE,"3874","2015-05-08-12-38",21,"Female","37","2","18 months","p_shoe_where_1","6","p"
"211","21","6","p_bird_look_1_26_3","bird","bird","0",TRUE,"3905","2015-05-08-12-38",21,"Female","37","2","18 months","p_bird_look_1","3","p"
"212","22","6","p_doll_where_1_28_5","doll","doll","1",TRUE,"3682","2015-05-08-12-38",21,"Female","37","2","18 months","p_doll_where_1","5","p"
"213","23","6","p_car_where_1_22_3","car","car","1",TRUE,"5073","2015-05-08-12-38",21,"Female","37","2","18 months","p_car_where_1","3","p"
"214","24","6","r_love_shoes_3_15_3","shoe","shoe","0",TRUE,"8115","2015-05-08-12-38",21,"Female","37","2","18 months","r_love_shoes_3","3","r"
"215","25","6","r_love_doll_3_21_2","doll","doll","1",TRUE,"9490","2015-05-08-12-38",21,"Female","37","2","18 months","r_love_doll_3","2","r"
"216","26","6","p_book_look_2_02_2","book","book","1",TRUE,"4995","2015-05-08-12-38",21,"Female","37","2","18 months","p_book_look_2","2","p"
"217","27","6","r_cat_which_1_24_3","cat","cat","0",TRUE,"4034","2015-05-08-12-38",21,"Female","37","2","18 months","r_cat_which_1","3","r"
"218","28","6","p_bird_where_1_25_1","bird","bird","0",TRUE,"5189","2015-05-08-12-38",21,"Female","37","2","18 months","p_bird_where_1","1","p"
"219","29","6","r_car_which_1_27_2","car","car","0",TRUE,"5812","2015-05-08-12-38",21,"Female","37","2","18 months","r_car_which_1","2","r"
"220","30","6","p_kitty_where_2_05_3","cat","cat","1",TRUE,"4900","2015-05-08-12-38",21,"Female","37","2","18 months","p_kitty_where_2","3","p"
"221","31","6","r_bear_which_1_26_4","bear","bear","0",TRUE,"3490","2015-05-08-12-38",21,"Female","37","2","18 months","r_bear_which_1","4","r"
"222","32","6","p_doll_find_2_03_6","doll","doll","1",TRUE,"4003","2015-05-08-12-38",21,"Female","37","2","18 months","p_doll_find_1","6","p"
"223","33","6","p_book_where_2_05_6","book","book","1",TRUE,"5314","2015-05-08-12-38",21,"Female","37","2","18 months","p_book_where_2","6","p"
"224","34","6","p_kitty_hey_3_02_3","cat","cat","1",TRUE,"5794","2015-05-08-12-38",21,"Female","37","2","18 months","p_kitty_hey_3","3","p"
"225","35","6","p_bear_where_1_25_1","bear","bear","0",TRUE,"4130","2015-05-08-12-38",21,"Female","37","2","18 months","p_bear_where_1","1","p"
"226","36","6","r_doll_which_1_20_1","doll","bear","0",FALSE,"5266","2015-05-08-12-38",21,"Female","37","2","18 months","r_doll_which_1","1","r"
"227","37","6","r_love_bird_3_20_2","bird","bird","1",TRUE,"7890","2015-05-08-12-38",21,"Female","37","2","18 months","r_love_bird_3","2","r"
"228","38","6","p_ball_find_2_04_4","ball","ball","1",TRUE,"4742","2015-05-08-12-38",21,"Female","37","2","18 months","p_ball_find_2","4","p"
"1","1","1","r_love_car_3_23_6","car","car","1",TRUE,"11835","2015-05-13-16-56",22,"Female","20","2","18","r_love_car_3","6","r"
"2","2","1","p_bird_where_1_29_5","bird","bird","0",TRUE,"24949","2015-05-13-16-56",22,"Female","20","2","18","p_bird_where_1","5","p"
"3","3","1","p_bear_look_2_00_4","bear","bear","1",TRUE,"6917","2015-05-13-16-56",22,"Female","20","2","18","p_bear_look_1","4","p"
"4","4","1","p_book_look_2_04_4","book","car","1",FALSE,"28680","2015-05-13-16-56",22,"Female","20","2","18","p_book_look_2","4","p"
"5","5","1","r_love_ball_3_22_6","ball","ball","0",TRUE,"15093","2015-05-13-16-56",22,"Female","20","2","18","r_love_ball_3","6","r"
"6","6","1","r_book_which_2_01_5","book","car","1",FALSE,"46441","2015-05-13-16-56",22,"Female","20","2","18","r_book_which_1","5","r"
"7","7","1","r_bear_where_4_04_2","bear","bear","0",TRUE,"11733","2015-05-13-16-56",22,"Female","20","2","18","r_bear_where_4","2","r"
"8","8","1","p_bird_look_1_27_4","bird","bird","0",TRUE,"6749","2015-05-13-16-56",22,"Female","20","2","18","p_bird_look_1","4","p"
"9","9","1","p_shoe_hey_3_00_6","shoe","shoe","0",TRUE,"7511","2015-05-13-16-56",22,"Female","20","2","18","p_shoe_hey_2","6","p"
"10","10","1","r_ball_where_4_11_6","ball","ball","1",TRUE,"9530","2015-05-13-16-56",22,"Female","20","2","18","r_ball_where_4","6","r"
"11","11","1","r_doll_where_3_27_2","doll","doll","1",TRUE,"13538","2015-05-13-16-56",22,"Female","20","2","18","r_doll_where_3","2","r"
"12","12","1","p_ball_where_1_23_3","ball","shoe","0",FALSE,"8618","2015-05-13-16-56",22,"Female","20","2","18","p_ball_where_1","3","p"
"13","13","1","p_car_where_1_24_5","car","book","1",FALSE,"6580","2015-05-13-16-56",22,"Female","20","2","18","p_car_where_1","5","p"
"14","14","1","r_cat_where_4_00_3","cat","cat","0",TRUE,"11324","2015-05-13-16-56",22,"Female","20","2","18","r_cat_where_3","3","r"
"15","15","1","r_bird_where_4_11_6","bird","bird","0",TRUE,"9494","2015-05-13-16-56",22,"Female","20","2","18","r_bird_where_4","6","r"
"16","16","1","r_love_book_3_26_3","book","book","1",TRUE,"9298","2015-05-13-16-56",22,"Female","20","2","18","r_love_book_3","3","r"
"17","17","1","r_love_doll_3_22_3","doll","doll","1",TRUE,"13127","2015-05-13-16-56",22,"Female","20","2","18","r_love_doll_3","3","r"
"18","18","1","p_book_where_2_01_2","book","car","1",FALSE,"6719","2015-05-13-16-56",22,"Female","20","2","18","p_book_where_2","2","p"
"19","19","1","r_love_shoes_3_13_1","shoe","ball","1",FALSE,"10267","2015-05-13-16-56",22,"Female","20","2","18","r_love_shoes_3","1","r"
"20","20","1","r_book_where_4_08_6","book","book","1",TRUE,"9276","2015-05-13-16-56",22,"Female","20","2","18","r_book_where_4","6","r"
"21","21","1","p_kitty_hey_3_02_3","cat","cat","0",TRUE,"7913","2015-05-13-16-56",22,"Female","20","2","18","p_kitty_hey_3","3","p"
"22","22","1","p_shoe_where_1_19_2","shoe","shoe","1",TRUE,"5864","2015-05-13-16-56",22,"Female","20","2","18","p_shoe_where_1","2","p"
"23","23","1","r_shoes_where_3_27_2","shoe","ball","0",FALSE,"12139","2015-05-13-16-56",22,"Female","20","2","18","r_shoes_where_3","2","r"
"24","24","1","p_ball_find_2_05_5","ball","ball","0",TRUE,"6112","2015-05-13-16-56",22,"Female","20","2","18","p_ball_find_2","5","p"
"25","25","1","r_cat_which_1_23_2","cat","bird","1",FALSE,"5970","2015-05-13-16-56",22,"Female","20","2","18","r_cat_which_1","2","r"
"26","26","1","r_car_which_1_26_1","car","car","0",TRUE,"14729","2015-05-13-16-56",22,"Female","20","2","18","r_car_which_1","1","r"
"27","27","1","r_ball_which_2_01_2","ball","shoe","1",FALSE,"6072","2015-05-13-16-56",22,"Female","20","2","18","r_ball_which_2","2","r"
"28","28","1","p_doll_where_1_29_6","doll","doll","0",TRUE,"5054","2015-05-13-16-56",22,"Female","20","2","18","p_doll_where_1","6","p"
"29","29","1","r_car_where_3_22_2","car","car","1",TRUE,"4631","2015-05-13-16-56",22,"Female","20","2","18","r_car_where_3","2","r"
"30","30","1","r_bear_which_1_23_1","bear","doll","0",FALSE,"6396","2015-05-13-16-56",22,"Female","20","2","18","r_bear_which_1","1","r"
"31","31","1","r_doll_which_1_25_6","doll","doll","0",TRUE,"5869","2015-05-13-16-56",22,"Female","20","2","18","r_doll_which_1","6","r"
"32","32","1","r_love_bear_3_19_3","bear","bear","0",TRUE,"27275","2015-05-13-16-56",22,"Female","20","2","18","r_love_bear_3","3","r"
"33","33","1","p_kitty_where_2_07_5","cat","cat","1",TRUE,"25118","2015-05-13-16-56",22,"Female","20","2","18","p_kitty_where_2","5","p"
"34","34","1","r_love_bird_3_22_4","bird","bird","0",TRUE,"73719","2015-05-13-16-56",22,"Female","20","2","18","r_love_bird_3","4","r"
"35","35","1","p_doll_find_2_02_5","doll","bear","1",FALSE,"25393","2015-05-13-16-56",22,"Female","20","2","18","p_doll_find_1","5","p"
"36","36","1","p_bear_where_1_29_5","bear","bear","0",TRUE,"5234","2015-05-13-16-56",22,"Female","20","2","18","p_bear_where_1","5","p"
"37","37","1","r_shoes_which_1_25_4","shoe","shoe","0",TRUE,"6628","2015-05-13-16-56",22,"Female","20","2","18","r_shoes_which_1","4","r"
"38","38","1","r_love_cat_3_26_6","cat","cat","1",TRUE,"9512","2015-05-13-16-56",22,"Female","20","2","18","r_love_cat_3","6","r"
"39","1","2","r_car_which_1_28_3","car","car","0",TRUE,"3395","2015-05-13-16-56",22,"Female","20","2","18","r_car_which_1","3","r"
"40","2","2","p_car_where_1_25_6","car","book","1",FALSE,"6422","2015-05-13-16-56",22,"Female","20","2","18","p_car_where_1","6","p"
"41","3","2","r_car_where_3_24_4","car","car","0",TRUE,"8328","2015-05-13-16-56",22,"Female","20","2","18","r_car_where_3","4","r"
"42","4","2","p_shoe_hey_2_29_5","shoe","shoe","1",TRUE,"6817","2015-05-13-16-56",22,"Female","20","2","18","p_shoe_hey_2","5","p"
"43","5","2","r_love_bird_3_21_3","bird","cat","1",FALSE,"10341","2015-05-13-16-56",22,"Female","20","2","18","r_love_bird_3","3","r"
"44","6","2","p_doll_where_1_24_1","doll","doll","1",TRUE,"5440","2015-05-13-16-56",22,"Female","20","2","18","p_doll_where_1","1","p"
"45","7","2","p_bird_look_1_25_2","bird","bird","0",TRUE,"5105","2015-05-13-16-56",22,"Female","20","2","18","p_bird_look_1","2","p"
"46","8","2","r_shoes_where_3_29_4","shoe","ball","1",FALSE,"9824","2015-05-13-16-56",22,"Female","20","2","18","r_shoes_where_3","4","r"
"47","9","2","r_book_which_2_00_4","book","book","1",TRUE,"7115","2015-05-13-16-56",22,"Female","20","2","18","r_book_which_1","4","r"
"48","10","2","r_bear_which_1_24_2","bear","bear","0",TRUE,"3081","2015-05-13-16-56",22,"Female","20","2","18","r_bear_which_1","2","r"
"49","11","2","p_ball_find_2_01_1","ball","shoe","0",FALSE,"3685","2015-05-13-16-56",22,"Female","20","2","18","p_ball_find_2","1","p"
"50","12","2","r_cat_where_4_01_4","cat","cat","0",TRUE,"8844","2015-05-13-16-56",22,"Female","20","2","18","r_cat_where_3","4","r"
"51","13","2","p_bear_look_1_27_1","bear","bear","1",TRUE,"5345","2015-05-13-16-56",22,"Female","20","2","18","p_bear_look_1","1","p"
"52","14","2","r_ball_which_2_02_3","ball","shoe","0",FALSE,"6780","2015-05-13-16-56",22,"Female","20","2","18","r_ball_which_2","3","r"
"53","15","2","r_ball_where_4_10_5","ball","ball","0",TRUE,"10883","2015-05-13-16-56",22,"Female","20","2","18","r_ball_where_4","5","r"
"54","16","2","r_love_doll_3_23_4","doll","bear","1",FALSE,"9953","2015-05-13-16-56",22,"Female","20","2","18","r_love_doll_3","4","r"
"55","17","2","r_bird_where_4_06_1","bird","bird","0",TRUE,"9822","2015-05-13-16-56",22,"Female","20","2","18","r_bird_where_4","1","r"
"56","18","2","p_ball_where_1_26_6","ball","ball","0",TRUE,"6798","2015-05-13-16-56",22,"Female","20","2","18","p_ball_where_1","6","p"
"57","19","2","p_bear_where_1_27_3","bear","doll","1",FALSE,"7404","2015-05-13-16-56",22,"Female","20","2","18","p_bear_where_1","3","p"
"58","20","2","r_doll_where_3_28_3","doll","doll","0",TRUE,"12410","2015-05-13-16-56",22,"Female","20","2","18","r_doll_where_3","3","r"
"59","21","2","r_doll_which_1_20_1","doll","doll","1",TRUE,"6016","2015-05-13-16-56",22,"Female","20","2","18","r_doll_which_1","1","r"
"60","22","2","r_bear_where_4_03_1","bear","doll","0",FALSE,"12558","2015-05-13-16-56",22,"Female","20","2","18","r_bear_where_4","1","r"
"61","23","2","r_love_bear_3_20_4","bear","bear","0",TRUE,"12687","2015-05-13-16-56",22,"Female","20","2","18","r_love_bear_3","4","r"
"62","24","2","p_book_look_2_05_5","book","book","0",TRUE,"6928","2015-05-13-16-56",22,"Female","20","2","18","p_book_look_2","5","p"
"63","25","2","r_cat_which_1_27_6","cat","cat","1",TRUE,"6122","2015-05-13-16-56",22,"Female","20","2","18","r_cat_which_1","6","r"
"64","26","2","p_shoe_where_1_21_4","shoe","shoe","0",TRUE,"7562","2015-05-13-16-56",22,"Female","20","2","18","p_shoe_where_1","4","p"
"65","27","2","r_shoes_which_1_27_6","shoe","shoe","1",TRUE,"7919","2015-05-13-16-56",22,"Female","20","2","18","r_shoes_which_1","6","r"
"66","28","2","p_kitty_where_2_06_4","cat","cat","0",TRUE,"8399","2015-05-13-16-56",22,"Female","20","2","18","p_kitty_where_2","4","p"
"67","29","2","r_love_car_3_20_3","car","car","1",TRUE,"16518","2015-05-13-16-56",22,"Female","20","2","18","r_love_car_3","3","r"
"68","30","2","p_doll_find_2_03_6","doll","bear","0",FALSE,"8074","2015-05-13-16-56",22,"Female","20","2","18","p_doll_find_1","6","p"
"69","31","2","r_love_ball_3_20_4","ball","ball","0",TRUE,"9750","2015-05-13-16-56",22,"Female","20","2","18","r_love_ball_3","4","r"
"70","32","2","p_bird_where_1_27_3","bird","cat","1",FALSE,"7211","2015-05-13-16-56",22,"Female","20","2","18","p_bird_where_1","3","p"
"71","33","2","r_love_book_3_25_2","book","car","1",FALSE,"11054","2015-05-13-16-56",22,"Female","20","2","18","r_love_book_3","2","r"
"72","34","2","p_kitty_hey_3_05_6","cat","cat","0",TRUE,"14038","2015-05-13-16-56",22,"Female","20","2","18","p_kitty_hey_3","6","p"
"73","35","2","r_love_cat_3_24_4","cat","cat","1",TRUE,"10960","2015-05-13-16-56",22,"Female","20","2","18","r_love_cat_3","4","r"
"74","36","2","p_book_where_2_00_1","book","book","1",TRUE,"6037","2015-05-13-16-56",22,"Female","20","2","18","p_book_where_2","1","p"
"75","37","2","r_book_where_4_06_4","book","book","0",TRUE,"14464","2015-05-13-16-56",22,"Female","20","2","18","r_book_where_4","4","r"
"76","38","2","r_love_shoes_3_14_2","shoe","ball","0",FALSE,"13843","2015-05-13-16-56",22,"Female","20","2","18","r_love_shoes_3","2","r"
"77","1","3","r_love_bear_3_22_6","bear","bear","0",TRUE,"8900","2015-05-13-16-56",22,"Female","20","2","18","r_love_bear_3","6","r"
"78","2","3","p_kitty_where_2_05_3","cat","bird","1",FALSE,"4472","2015-05-13-16-56",22,"Female","20","2","18","p_kitty_where_2","3","p"
"79","3","3","p_shoe_where_1_18_1","shoe","shoe","0",TRUE,"4957","2015-05-13-16-56",22,"Female","20","2","18","p_shoe_where_1","1","p"
"80","4","3","r_love_doll_3_20_1","doll","doll","1",TRUE,"8497","2015-05-13-16-56",22,"Female","20","2","18","r_love_doll_3","1","r"
"81","5","3","r_shoes_which_1_24_3","shoe","shoe","1",TRUE,"6343","2015-05-13-16-56",22,"Female","20","2","18","r_shoes_which_1","3","r"
"82","6","3","r_bear_where_4_05_3","bear","bear","1",TRUE,"15772","2015-05-13-16-56",22,"Female","20","2","18","r_bear_where_4","3","r"
"83","7","3","r_bear_which_1_25_3","bear","bear","1",TRUE,"8017","2015-05-13-16-56",22,"Female","20","2","18","r_bear_which_1","3","r"
"84","8","3","r_love_bird_3_23_5","bird","bird","0",TRUE,"9752","2015-05-13-16-56",22,"Female","20","2","18","r_love_bird_3","5","r"
"85","9","3","r_love_book_3_27_4","book","car","1",FALSE,"11814","2015-05-13-16-56",22,"Female","20","2","18","r_love_book_3","4","r"
"86","10","3","p_shoe_hey_2_28_4","shoe","ball","1",FALSE,"8207","2015-05-13-16-56",22,"Female","20","2","18","p_shoe_hey_2","4","p"
"87","11","3","r_car_where_3_26_6","car","car","0",TRUE,"12358","2015-05-13-16-56",22,"Female","20","2","18","r_car_where_3","6","r"
"88","12","3","r_bird_where_4_07_2","bird","bird","1",TRUE,"15135","2015-05-13-16-56",22,"Female","20","2","18","r_bird_where_4","2","r"
"89","13","3","r_shoes_where_3_26_1","shoe","ball","0",FALSE,"14395","2015-05-13-16-56",22,"Female","20","2","18","r_shoes_where_3","1","r"
"90","14","3","p_kitty_hey_3_03_4","cat","cat","0",TRUE,"7672","2015-05-13-16-56",22,"Female","20","2","18","p_kitty_hey_3","4","p"
"91","15","3","p_bird_where_1_25_1","bird","cat","1",FALSE,"7113","2015-05-13-16-56",22,"Female","20","2","18","p_bird_where_1","1","p"
"92","16","3","p_book_where_2_02_3","book","car","1",FALSE,"8338","2015-05-13-16-56",22,"Female","20","2","18","p_book_where_2","3","p"
"93","17","3","r_book_which_1_28_2","book","book","1",TRUE,"6344","2015-05-13-16-56",22,"Female","20","2","18","r_book_which_1","2","r"
"94","18","3","p_book_look_2_02_2","book","car","0",FALSE,"6777","2015-05-13-16-56",22,"Female","20","2","18","p_book_look_2","2","p"
"95","19","3","p_bear_where_2_00_6","bear","bear","1",TRUE,"11696","2015-05-13-16-56",22,"Female","20","2","18","p_bear_where_1","6","p"
"96","20","3","r_car_which_1_27_2","car","car","0",TRUE,"3384","2015-05-13-16-56",22,"Female","20","2","18","r_car_which_1","2","r"
"97","21","3","p_ball_where_1_24_4","ball","shoe","1",FALSE,"7637","2015-05-13-16-56",22,"Female","20","2","18","p_ball_where_1","4","p"
"98","22","3","p_bird_look_1_28_5","bird","bird","0",TRUE,"8002","2015-05-13-16-56",22,"Female","20","2","18","p_bird_look_1","5","p"
"99","23","3","r_love_ball_3_17_1","ball","ball","1",TRUE,"9609","2015-05-13-16-56",22,"Female","20","2","18","r_love_ball_3","1","r"
"100","24","3","r_love_cat_3_22_2","cat","bird","1",FALSE,"10028","2015-05-13-16-56",22,"Female","20","2","18","r_love_cat_3","2","r"
"101","25","3","r_doll_which_1_21_2","doll","bear","0",FALSE,"5695","2015-05-13-16-56",22,"Female","20","2","18","r_doll_which_1","2","r"
"102","26","3","r_ball_which_2_05_6","ball","ball","0",TRUE,"8437","2015-05-13-16-56",22,"Female","20","2","18","r_ball_which_2","6","r"
"103","27","3","r_doll_where_4_01_6","doll","doll","1",TRUE,"10075","2015-05-13-16-56",22,"Female","20","2","18","r_doll_where_3","6","r"
"104","28","3","p_ball_find_2_06_6","ball","ball","0",TRUE,"5862","2015-05-13-16-56",22,"Female","20","2","18","p_ball_find_2","6","p"
"105","29","3","p_bear_look_1_28_2","bear","bear","1",TRUE,"6103","2015-05-13-16-56",22,"Female","20","2","18","p_bear_look_1","2","p"
"106","30","3","r_love_car_3_22_5","car","car","0",TRUE,"13905","2015-05-13-16-56",22,"Female","20","2","18","r_love_car_3","5","r"
"107","31","3","p_doll_find_1_28_1","doll","doll","1",TRUE,"5260","2015-05-13-16-56",22,"Female","20","2","18","p_doll_find_1","1","p"
"108","32","3","r_love_shoes_3_18_6","shoe","shoe","1",TRUE,"11172","2015-05-13-16-56",22,"Female","20","2","18","r_love_shoes_3","6","r"
"109","33","3","r_book_where_4_05_3","book","book","1",TRUE,"11613","2015-05-13-16-56",22,"Female","20","2","18","r_book_where_4","3","r"
"110","34","3","r_cat_which_1_25_4","cat","cat","0",TRUE,"6162","2015-05-13-16-56",22,"Female","20","2","18","r_cat_which_1","4","r"
"111","35","3","r_cat_where_4_02_5","cat","cat","1",TRUE,"12226","2015-05-13-16-56",22,"Female","20","2","18","r_cat_where_3","5","r"
"112","36","3","p_doll_where_1_28_5","doll","doll","0",TRUE,"6270","2015-05-13-16-56",22,"Female","20","2","18","p_doll_where_1","5","p"
"113","37","3","r_ball_where_4_06_1","ball","ball","1",TRUE,"18479","2015-05-13-16-56",22,"Female","20","2","18","r_ball_where_4","1","r"
"114","38","3","p_car_where_1_22_3","car","book","0",FALSE,"6084","2015-05-13-16-56",22,"Female","20","2","18","p_car_where_1","3","p"
"115","1","4","r_love_cat_3_21_1","cat","cat","0",TRUE,"13022","2015-05-13-16-56",22,"Female","20","2","18","r_love_cat_3","1","r"
"116","2","4","p_kitty_hey_3_01_2","cat","cat","1",TRUE,"6809","2015-05-13-16-56",22,"Female","20","2","18","p_kitty_hey_3","2","p"
"117","3","4","p_bird_where_1_26_2","bird","bird","0",TRUE,"8749","2015-05-13-16-56",22,"Female","20","2","18","p_bird_where_1","2","p"
"118","4","4","p_doll_where_1_27_4","doll","doll","1",TRUE,"6428","2015-05-13-16-56",22,"Female","20","2","18","p_doll_where_1","4","p"
"119","5","4","r_car_where_3_23_3","car","car","1",TRUE,"13276","2015-05-13-16-56",22,"Female","20","2","18","r_car_where_3","3","r"
"120","6","4","r_love_bear_3_21_5","bear","bear","0",TRUE,"11811","2015-05-13-16-56",22,"Female","20","2","18","r_love_bear_3","5","r"
"121","7","4","p_kitty_where_2_04_2","cat","cat","0",TRUE,"8104","2015-05-13-16-56",22,"Female","20","2","18","p_kitty_where_2","2","p"
"122","8","4","r_book_which_2_02_6","book","book","1",TRUE,"6469","2015-05-13-16-56",22,"Female","20","2","18","r_book_which_1","6","r"
"123","9","4","r_cat_which_1_24_3","cat","cat","1",TRUE,"9598","2015-05-13-16-56",22,"Female","20","2","18","r_cat_which_1","3","r"
"124","10","4","r_book_where_4_04_2","book","book","1",TRUE,"12848","2015-05-13-16-56",22,"Female","20","2","18","r_book_where_4","2","r"
"125","11","4","r_car_which_2_00_5","car","car","0",TRUE,"6544","2015-05-13-16-56",22,"Female","20","2","18","r_car_which_1","5","r"
"126","12","4","r_love_ball_3_19_3","ball","ball","1",TRUE,"12653","2015-05-13-16-56",22,"Female","20","2","18","r_love_ball_3","3","r"
"127","13","4","p_shoe_where_1_20_3","shoe","shoe","0",TRUE,"7923","2015-05-13-16-56",22,"Female","20","2","18","p_shoe_where_1","3","p"
"128","14","4","p_ball_where_1_22_2","ball","shoe","0",FALSE,"7985","2015-05-13-16-56",22,"Female","20","2","18","p_ball_where_1","2","p"
"129","15","4","r_love_shoes_3_17_5","shoe","ball","1",FALSE,"14610","2015-05-13-16-56",22,"Female","20","2","18","r_love_shoes_3","5","r"
"130","16","4","r_ball_where_4_09_4","ball","ball","0",TRUE,"19423","2015-05-13-16-56",22,"Female","20","2","18","r_ball_where_4","4","r"
"131","17","4","r_shoes_which_1_22_1","shoe","shoe","0",TRUE,"8740","2015-05-13-16-56",22,"Female","20","2","18","r_shoes_which_1","1","r"
"132","18","4","p_doll_find_2_00_3","doll","doll","1",TRUE,"6203","2015-05-13-16-56",22,"Female","20","2","18","p_doll_find_1","3","p"
"133","19","4","p_bear_look_2_02_6","bear","bear","0",TRUE,"8747","2015-05-13-16-56",22,"Female","20","2","18","p_bear_look_1","6","p"
"134","20","4","p_ball_find_2_04_4","ball","ball","1",TRUE,"6322","2015-05-13-16-56",22,"Female","20","2","18","p_ball_find_2","4","p"
"135","21","4","r_love_bird_3_19_1","bird","cat","0",FALSE,"9320","2015-05-13-16-56",22,"Female","20","2","18","r_love_bird_3","1","r"
"136","22","4","p_book_where_2_04_5","book","book","0",TRUE,"7069","2015-05-13-16-56",22,"Female","20","2","18","p_book_where_2","5","p"
"137","23","4","r_bear_which_1_28_6","bear","bear","1",TRUE,"6640","2015-05-13-16-56",22,"Female","20","2","18","r_bear_which_1","6","r"
"138","24","4","p_bird_look_1_24_1","bird","bird","0",TRUE,"6906","2015-05-13-16-56",22,"Female","20","2","18","p_bird_look_1","1","p"
"139","25","4","r_shoes_where_4_00_5","shoe","ball","0",FALSE,"12550","2015-05-13-16-56",22,"Female","20","2","18","r_shoes_where_3","5","r"
"140","26","4","p_bear_where_1_25_1","bear","doll","1",FALSE,"7940","2015-05-13-16-56",22,"Female","20","2","18","p_bear_where_1","1","p"
"141","27","4","r_bear_where_4_06_4","bear","bear","0",TRUE,"13986","2015-05-13-16-56",22,"Female","20","2","18","r_bear_where_4","4","r"
"142","28","4","p_shoe_hey_2_27_3","shoe","ball","1",FALSE,"11854","2015-05-13-16-56",22,"Female","20","2","18","p_shoe_hey_2","3","p"
"143","29","4","r_cat_where_3_29_2","cat","cat","1",TRUE,"11417","2015-05-13-16-56",22,"Female","20","2","18","r_cat_where_3","2","r"
"144","30","4","p_car_where_1_21_2","car","car","1",TRUE,"6200","2015-05-13-16-56",22,"Female","20","2","18","p_car_where_1","2","p"
"145","31","4","r_love_book_3_29_6","book","book","0",TRUE,"9136","2015-05-13-16-56",22,"Female","20","2","18","r_love_book_3","6","r"
"146","32","4","r_bird_where_4_08_3","bird","bird","0",TRUE,"18648","2015-05-13-16-56",22,"Female","20","2","18","r_bird_where_4","3","r"
"147","33","4","p_book_look_2_03_3","book","book","1",TRUE,"10663","2015-05-13-16-56",22,"Female","20","2","18","p_book_look_2","3","p"
"148","34","4","r_love_doll_3_24_5","doll","doll","1",TRUE,"14422","2015-05-13-16-56",22,"Female","20","2","18","r_love_doll_3","5","r"
"149","35","4","r_doll_which_1_24_5","doll","doll","1",TRUE,"9535","2015-05-13-16-56",22,"Female","20","2","18","r_doll_which_1","5","r"
"150","36","4","r_doll_where_3_29_4","doll","bear","1",FALSE,"15199","2015-05-13-16-56",22,"Female","20","2","18","r_doll_where_3","4","r"
"151","37","4","r_love_car_3_19_2","car","book","1",FALSE,"12211","2015-05-13-16-56",22,"Female","20","2","18","r_love_car_3","2","r"
"152","38","4","r_ball_which_2_03_4","ball","ball","1",TRUE,"6600","2015-05-13-16-56",22,"Female","20","2","18","r_ball_which_2","4","r"
"153","1","5","r_ball_where_4_07_2","ball","ball","0",TRUE,"15023","2015-05-13-16-56",22,"Female","20","2","18","r_ball_where_4","2","r"
"154","2","5","p_doll_where_1_25_2","doll","bear","1",FALSE,"9154","2015-05-13-16-56",22,"Female","20","2","18","p_doll_where_1","2","p"
"155","3","5","r_doll_where_4_00_5","doll","doll","1",TRUE,"12305","2015-05-13-16-56",22,"Female","20","2","18","r_doll_where_3","5","r"
"156","4","5","p_bear_where_1_26_2","bear","doll","0",FALSE,"11827","2015-05-13-16-56",22,"Female","20","2","18","p_bear_where_1","2","p"
"157","5","5","r_bear_where_4_08_6","bear","bear","1",TRUE,"16725","2015-05-13-16-56",22,"Female","20","2","18","r_bear_where_4","6","r"
"158","6","5","r_love_shoes_3_16_4","shoe","shoe","0",TRUE,"14693","2015-05-13-16-56",22,"Female","20","2","18","r_love_shoes_3","4","r"
"159","7","5","r_book_which_1_27_1","book","book","1",TRUE,"8500","2015-05-13-16-56",22,"Female","20","2","18","r_book_which_1","1","r"
"160","8","5","r_love_doll_3_21_2","doll","doll","0",TRUE,"10479","2015-05-13-16-56",22,"Female","20","2","18","r_love_doll_3","2","r"
"161","9","5","r_cat_where_4_03_6","cat","cat","0",TRUE,"10312","2015-05-13-16-56",22,"Female","20","2","18","r_cat_where_3","6","r"
"162","10","5","p_shoe_hey_2_25_1","shoe","shoe","1",TRUE,"12446","2015-05-13-16-56",22,"Female","20","2","18","p_shoe_hey_2","1","p"
"163","11","5","r_love_book_3_28_5","book","book","1",TRUE,"8135","2015-05-13-16-56",22,"Female","20","2","18","r_love_book_3","5","r"
"164","12","5","p_car_where_1_23_4","car","car","1",TRUE,"5697","2015-05-13-16-56",22,"Female","20","2","18","p_car_where_1","4","p"
"165","13","5","p_ball_where_1_25_5","ball","ball","1",TRUE,"6603","2015-05-13-16-56",22,"Female","20","2","18","p_ball_where_1","5","p"
"166","14","5","r_love_car_3_21_4","car","car","1",TRUE,"9044","2015-05-13-16-56",22,"Female","20","2","18","r_love_car_3","4","r"
"167","15","5","r_doll_which_1_22_3","doll","doll","0",TRUE,"5588","2015-05-13-16-56",22,"Female","20","2","18","r_doll_which_1","3","r"
"168","16","5","p_book_look_2_01_1","book","car","1",FALSE,"6903","2015-05-13-16-56",22,"Female","20","2","18","p_book_look_2","1","p"
"169","17","5","r_shoes_which_1_23_2","shoe","ball","1",FALSE,"7078","2015-05-13-16-56",22,"Female","20","2","18","r_shoes_which_1","2","r"
"170","18","5","r_love_bird_3_24_6","bird","bird","0",TRUE,"8718","2015-05-13-16-56",22,"Female","20","2","18","r_love_bird_3","6","r"
"171","19","5","r_love_cat_3_23_3","cat","cat","0",TRUE,"10774","2015-05-13-16-56",22,"Female","20","2","18","r_love_cat_3","3","r"
"172","20","5","r_car_where_3_25_5","car","car","0",TRUE,"14695","2015-05-13-16-56",22,"Female","20","2","18","r_car_where_3","5","r"
"173","21","5","p_book_where_2_03_4","book","book","1",TRUE,"6394","2015-05-13-16-56",22,"Female","20","2","18","p_book_where_2","4","p"
"174","22","5","p_ball_find_2_02_2","ball","shoe","0",FALSE,"5846","2015-05-13-16-56",22,"Female","20","2","18","p_ball_find_2","2","p"
"175","23","5","p_doll_find_1_29_2","doll","bear","1",FALSE,"9492","2015-05-13-16-56",22,"Female","20","2","18","p_doll_find_1","2","p"
"176","24","5","r_love_bear_3_18_2","bear","bear","0",TRUE,"14736","2015-05-13-16-56",22,"Female","20","2","18","r_love_bear_3","2","r"
"177","25","5","p_shoe_where_1_23_6","shoe","shoe","1",TRUE,"5685","2015-05-13-16-56",22,"Female","20","2","18","p_shoe_where_1","6","p"
"178","26","5","r_car_which_2_01_6","car","car","0",TRUE,"6042","2015-05-13-16-56",22,"Female","20","2","18","r_car_which_1","6","r"
"179","27","5","p_bear_look_1_29_3","bear","bear","1",TRUE,"8855","2015-05-13-16-56",22,"Female","20","2","18","p_bear_look_1","3","p"
"180","28","5","r_ball_which_2_00_1","ball","shoe","0",FALSE,"3370","2015-05-13-16-56",22,"Female","20","2","18","r_ball_which_2","1","r"
"181","29","5","p_kitty_where_2_08_6","cat","cat","1",TRUE,"7342","2015-05-13-16-56",22,"Female","20","2","18","p_kitty_where_2","6","p"
"182","30","5","p_bird_where_1_28_4","bird","bird","0",TRUE,"6991","2015-05-13-16-56",22,"Female","20","2","18","p_bird_where_1","4","p"
"183","31","5","r_love_ball_3_18_2","ball","ball","0",TRUE,"12907","2015-05-13-16-56",22,"Female","20","2","18","r_love_ball_3","2","r"
"184","32","5","r_bird_where_4_10_5","bird","bird","0",TRUE,"18545","2015-05-13-16-56",22,"Female","20","2","18","r_bird_where_4","5","r"
"185","33","5","p_kitty_hey_3_00_1","cat","bird","1",FALSE,"13304","2015-05-13-16-56",22,"Female","20","2","18","p_kitty_hey_3","1","p"
"186","34","5","r_shoes_where_3_28_3","shoe","ball","1",FALSE,"13562","2015-05-13-16-56",22,"Female","20","2","18","r_shoes_where_3","3","r"
"187","35","5","r_book_where_4_07_5","book","book","1",TRUE,"13648","2015-05-13-16-56",22,"Female","20","2","18","r_book_where_4","5","r"
"188","36","5","r_bear_which_1_27_5","bear","bear","1",TRUE,"5647","2015-05-13-16-56",22,"Female","20","2","18","r_bear_which_1","5","r"
"189","37","5","p_bird_look_1_29_6","bird","cat","0",FALSE,"6981","2015-05-13-16-56",22,"Female","20","2","18","p_bird_look_1","6","p"
"190","38","5","r_cat_which_1_26_5","cat","cat","1",TRUE,"9194","2015-05-13-16-56",22,"Female","20","2","18","r_cat_which_1","5","r"
"191","1","6","r_love_cat_3_25_5","cat","cat","0",TRUE,"9693","2015-05-13-16-56",22,"Female","20","2","18","r_love_cat_3","5","r"
"192","2","6","r_ball_where_4_08_3","ball","ball","1",TRUE,"13221","2015-05-13-16-56",22,"Female","20","2","18","r_ball_where_4","3","r"
"193","3","6","r_love_car_3_18_1","car","book","1",FALSE,"14863","2015-05-13-16-56",22,"Female","20","2","18","r_love_car_3","1","r"
"194","4","6","p_doll_where_1_26_3","doll","doll","1",TRUE,"7122","2015-05-13-16-56",22,"Female","20","2","18","p_doll_where_1","3","p"
"195","5","6","r_ball_which_2_04_5","ball","ball","1",TRUE,"7583","2015-05-13-16-56",22,"Female","20","2","18","r_ball_which_2","5","r"
"196","6","6","p_bear_where_1_28_4","bear","bear","0",TRUE,"7179","2015-05-13-16-56",22,"Female","20","2","18","p_bear_where_1","4","p"
"197","7","6","p_bird_where_2_00_6","bird","bird","0",TRUE,"5878","2015-05-13-16-56",22,"Female","20","2","18","p_bird_where_1","6","p"
"198","8","6","r_love_shoes_3_15_3","shoe","shoe","1",TRUE,"14630","2015-05-13-16-56",22,"Female","20","2","18","r_love_shoes_3","3","r"
"199","9","6","p_doll_find_2_01_4","doll","doll","1",TRUE,"10215","2015-05-13-16-56",22,"Female","20","2","18","p_doll_find_1","4","p"
"200","10","6","p_bird_look_1_26_3","bird","bird","0",TRUE,"6863","2015-05-13-16-56",22,"Female","20","2","18","p_bird_look_1","3","p"
"201","11","6","r_book_where_4_03_1","book","book","0",TRUE,"10141","2015-05-13-16-56",22,"Female","20","2","18","r_book_where_4","1","r"
"202","12","6","r_doll_where_3_26_1","doll","doll","1",TRUE,"13216","2015-05-13-16-56",22,"Female","20","2","18","r_doll_where_3","1","r"
"203","13","6","p_shoe_hey_2_26_2","shoe","ball","1",FALSE,"9031","2015-05-13-16-56",22,"Female","20","2","18","p_shoe_hey_2","2","p"
"204","14","6","r_love_book_3_24_1","book","car","0",FALSE,"11267","2015-05-13-16-56",22,"Female","20","2","18","r_love_book_3","1","r"
"205","15","6","r_shoes_where_4_01_6","shoe","shoe","0",TRUE,"10991","2015-05-13-16-56",22,"Female","20","2","18","r_shoes_where_3","6","r"
"206","16","6","r_bear_where_4_07_5","bear","bear","0",TRUE,"10653","2015-05-13-16-56",22,"Female","20","2","18","r_bear_where_4","5","r"
"207","17","6","r_bear_which_1_26_4","bear","bear","1",TRUE,"6733","2015-05-13-16-56",22,"Female","20","2","18","r_bear_which_1","4","r"
"208","18","6","p_shoe_where_1_22_5","shoe","shoe","1",TRUE,"5454","2015-05-13-16-56",22,"Female","20","2","18","p_shoe_where_1","5","p"
"209","19","6","r_love_bird_3_20_2","bird","cat","1",FALSE,"14643","2015-05-13-16-56",22,"Female","20","2","18","r_love_bird_3","2","r"
"210","20","6","r_car_where_3_21_1","car","car","0",TRUE,"15599","2015-05-13-16-56",22,"Female","20","2","18","r_car_where_3","1","r"
"211","21","6","p_kitty_hey_3_04_5","cat","cat","0",TRUE,"10475","2015-05-13-16-56",22,"Female","20","2","18","p_kitty_hey_3","5","p"
"212","22","6","p_kitty_where_2_03_1","cat","bird","0",FALSE,"6469","2015-05-13-16-56",22,"Female","20","2","18","p_kitty_where_2","1","p"
"213","23","6","p_ball_where_1_21_1","ball","shoe","1",FALSE,"5503","2015-05-13-16-56",22,"Female","20","2","18","p_ball_where_1","1","p"
"214","24","6","r_doll_which_1_23_4","doll","doll","1",TRUE,"7291","2015-05-13-16-56",22,"Female","20","2","18","r_doll_which_1","4","r"
"215","25","6","p_ball_find_2_03_3","ball","shoe","0",FALSE,"6456","2015-05-13-16-56",22,"Female","20","2","18","p_ball_find_2","3","p"
"216","26","6","p_book_where_2_05_6","book","book","0",TRUE,"6007","2015-05-13-16-56",22,"Female","20","2","18","p_book_where_2","6","p"
"217","27","6","p_car_where_1_20_1","car","car","1",TRUE,"5022","2015-05-13-16-56",22,"Female","20","2","18","p_car_where_1","1","p"
"218","28","6","r_cat_which_1_22_1","cat","bird","1",FALSE,"6718","2015-05-13-16-56",22,"Female","20","2","18","r_cat_which_1","1","r"
"219","29","6","r_car_which_1_29_4","car","car","1",TRUE,"6195","2015-05-13-16-56",22,"Female","20","2","18","r_car_which_1","4","r"
"220","30","6","r_love_ball_3_21_5","ball","ball","0",TRUE,"13393","2015-05-13-16-56",22,"Female","20","2","18","r_love_ball_3","5","r"
"221","31","6","r_love_bear_3_17_1","bear","bear","1",TRUE,"17469","2015-05-13-16-56",22,"Female","20","2","18","r_love_bear_3","1","r"
"222","32","6","r_love_doll_3_25_6","doll","doll","1",TRUE,"8437","2015-05-13-16-56",22,"Female","20","2","18","r_love_doll_3","6","r"
"223","33","6","r_cat_where_3_28_1","cat","cat","0",TRUE,"13026","2015-05-13-16-56",22,"Female","20","2","18","r_cat_where_3","1","r"
"224","34","6","p_book_look_2_06_6","book","car","1",FALSE,"8064","2015-05-13-16-56",22,"Female","20","2","18","p_book_look_2","6","p"
"225","35","6","r_book_which_1_29_3","book","book","1",TRUE,"6436","2015-05-13-16-56",22,"Female","20","2","18","r_book_which_1","3","r"
"226","36","6","r_shoes_which_1_26_5","shoe","shoe","1",TRUE,"5406","2015-05-13-16-56",22,"Female","20","2","18","r_shoes_which_1","5","r"
"227","37","6","p_bear_look_2_01_5","bear","bear","0",TRUE,"6961","2015-05-13-16-56",22,"Female","20","2","18","p_bear_look_1","5","p"
"228","38","6","r_bird_where_4_09_4","bird","cat","0",FALSE,"13788","2015-05-13-16-56",22,"Female","20","2","18","r_bird_where_4","4","r"
"1","1","1","r_love_car_3_22_5","car","car","1",TRUE,"24586","2015-05-19-16-01",40,"Female","25","3","birth","r_love_car_3","5","r"
"2","2","1","r_love_bird_3_20_2","bird","bird","0",TRUE,"32637","2015-05-19-16-01",40,"Female","25","3","birth","r_love_bird_3","2","r"
"3","3","1","p_doll_find_2_03_6","doll","doll","1",TRUE,"9028","2015-05-19-16-01",40,"Female","25","3","birth","p_doll_find_1","6","p"
"4","4","1","p_bear_look_2_02_6","bear","doll","0",FALSE,"12197","2015-05-19-16-01",40,"Female","25","3","birth","p_bear_look_1","6","p"
"5","5","1","r_cat_which_1_25_4","cat","cat","0",TRUE,"5822","2015-05-19-16-01",40,"Female","25","3","birth","r_cat_which_1","4","r"
"6","6","1","r_love_book_3_24_1","book","book","0",TRUE,"10787","2015-05-19-16-01",40,"Female","25","3","birth","r_love_book_3","1","r"
"7","7","1","p_bird_look_1_25_2","bird","bird","0",TRUE,"6467","2015-05-19-16-01",40,"Female","25","3","birth","p_bird_look_1","2","p"
"8","8","1","p_book_look_2_03_3","book","car","0",FALSE,"6561","2015-05-19-16-01",40,"Female","25","3","birth","p_book_look_2","3","p"
"9","9","1","p_ball_where_1_23_3","ball","shoe","0",FALSE,"10821","2015-05-19-16-01",40,"Female","25","3","birth","p_ball_where_1","3","p"
"10","10","1","p_car_where_1_22_3","car","car","1",TRUE,"8647","2015-05-19-16-01",40,"Female","25","3","birth","p_car_where_1","3","p"
"11","11","1","p_doll_where_1_25_2","doll","bear","0",FALSE,"6859","2015-05-19-16-01",40,"Female","25","3","birth","p_doll_where_1","2","p"
"12","12","1","r_ball_where_4_07_2","ball","ball","0",TRUE,"11348","2015-05-19-16-01",40,"Female","25","3","birth","r_ball_where_4","2","r"
"13","13","1","p_kitty_hey_3_03_4","cat","cat","1",TRUE,"6721","2015-05-19-16-01",40,"Female","25","3","birth","p_kitty_hey_3","4","p"
"14","14","1","r_book_where_4_07_5","book","book","0",TRUE,"7797","2015-05-19-16-01",40,"Female","25","3","birth","r_book_where_4","5","r"
"15","15","1","r_love_bear_3_21_5","bear","bear","1",TRUE,"7324","2015-05-19-16-01",40,"Female","25","3","birth","r_love_bear_3","5","r"
"16","16","1","p_bear_where_1_25_1","bear","doll","0",FALSE,"4730","2015-05-19-16-01",40,"Female","25","3","birth","p_bear_where_1","1","p"
"17","17","1","r_ball_which_2_02_3","ball","shoe","1",FALSE,"6247","2015-05-19-16-01",40,"Female","25","3","birth","r_ball_which_2","3","r"
"18","18","1","r_doll_where_3_28_3","doll","bear","1",FALSE,"8667","2015-05-19-16-01",40,"Female","25","3","birth","r_doll_where_3","3","r"
"19","19","1","r_bird_where_4_10_5","bird","bird","1",TRUE,"11528","2015-05-19-16-01",40,"Female","25","3","birth","r_bird_where_4","5","r"
"20","20","1","r_bear_where_4_04_2","bear","bear","1",TRUE,"11530","2015-05-19-16-01",40,"Female","25","3","birth","r_bear_where_4","2","r"
"21","21","1","p_kitty_where_2_04_2","cat","cat","0",TRUE,"5892","2015-05-19-16-01",40,"Female","25","3","birth","p_kitty_where_2","2","p"
"22","22","1","p_shoe_hey_2_29_5","shoe","shoe","1",TRUE,"5227","2015-05-19-16-01",40,"Female","25","3","birth","p_shoe_hey_2","5","p"
"23","23","1","r_shoes_which_1_27_6","shoe","shoe","1",TRUE,"3531","2015-05-19-16-01",40,"Female","25","3","birth","r_shoes_which_1","6","r"
"24","24","1","p_bird_where_1_27_3","bird","bird","0",TRUE,"7397","2015-05-19-16-01",40,"Female","25","3","birth","p_bird_where_1","3","p"
"25","25","1","r_shoes_where_3_29_4","shoe","ball","0",FALSE,"10399","2015-05-19-16-01",40,"Female","25","3","birth","r_shoes_where_3","4","r"
"26","26","1","p_book_where_2_04_5","book","book","1",TRUE,"9884","2015-05-19-16-01",40,"Female","25","3","birth","p_book_where_2","5","p"
"27","27","1","r_book_which_2_00_4","book","car","0",FALSE,"5646","2015-05-19-16-01",40,"Female","25","3","birth","r_book_which_1","4","r"
"28","28","1","r_love_shoes_3_18_6","shoe","ball","0",FALSE,"7024","2015-05-19-16-01",40,"Female","25","3","birth","r_love_shoes_3","6","r"
"29","29","1","r_love_cat_3_25_5","cat","cat","0",TRUE,"8597","2015-05-19-16-01",40,"Female","25","3","birth","r_love_cat_3","5","r"
"30","30","1","r_bear_which_1_24_2","bear","bear","1",TRUE,"12630","2015-05-19-16-01",40,"Female","25","3","birth","r_bear_which_1","2","r"
"31","31","1","r_cat_where_4_00_3","cat","cat","1",TRUE,"18211","2015-05-19-16-01",40,"Female","25","3","birth","r_cat_where_3","3","r"
"32","32","1","p_shoe_where_1_21_4","shoe","shoe","0",TRUE,"8812","2015-05-19-16-01",40,"Female","25","3","birth","p_shoe_where_1","4","p"
"33","33","1","p_ball_find_2_05_5","ball","ball","0",TRUE,"4750","2015-05-19-16-01",40,"Female","25","3","birth","p_ball_find_2","5","p"
"34","34","1","r_car_where_3_22_2","car","book","0",FALSE,"12050","2015-05-19-16-01",40,"Female","25","3","birth","r_car_where_3","2","r"
"35","35","1","r_car_which_2_01_6","car","car","1",TRUE,"4312","2015-05-19-16-01",40,"Female","25","3","birth","r_car_which_1","6","r"
"36","36","1","r_love_ball_3_21_5","ball","ball","0",TRUE,"6135","2015-05-19-16-01",40,"Female","25","3","birth","r_love_ball_3","5","r"
"37","37","1","r_doll_which_1_20_1","doll","doll","1",TRUE,"5302","2015-05-19-16-01",40,"Female","25","3","birth","r_doll_which_1","1","r"
"38","38","1","r_love_doll_3_21_2","doll","doll","1",TRUE,"8182","2015-05-19-16-01",40,"Female","25","3","birth","r_love_doll_3","2","r"
"39","1","2","p_doll_where_1_26_3","doll","bear","0",FALSE,"6272","2015-05-19-16-01",40,"Female","25","3","birth","p_doll_where_1","3","p"
"40","2","2","r_car_where_3_25_5","car","car","1",TRUE,"9118","2015-05-19-16-01",40,"Female","25","3","birth","r_car_where_3","5","r"
"41","3","2","r_bear_where_4_07_5","bear","bear","1",TRUE,"8277","2015-05-19-16-01",40,"Female","25","3","birth","r_bear_where_4","5","r"
