"Sub.Num","Sex","Response","Tr.Num","clean_target_img","stimuli","age_code","age_peek_months","hearing_status_participant","trial_types","RT","Accuracy","signs_produced","include","GoodRT","reason_excluded","correct"
"30004","F","D",2,"doll","V1","adult",349,"deaf","C_T",1633,0.704545454545455,NA,"yes",TRUE,NA,1
"30004","F","D",3,"sock","V1","adult",349,"deaf","C_T",1167,0.721590909090909,NA,"yes",TRUE,NA,1
"30004","F","D",4,"juice","V1","adult",349,"deaf","C_T",700,0.764367816091954,NA,"yes",TRUE,NA,1
"30004","F","D",5,"cookie","V1","adult",349,"deaf","C_T",833,0.674698795180723,NA,"yes",TRUE,NA,1
"30004","F","D",6,"cup","V1","adult",349,"deaf","C_T",967,0.697530864197531,NA,"yes",TRUE,NA,1
"30004","F","D",7,"cookie","V1","adult",349,"deaf","C_T",700,0.746987951807229,NA,"yes",TRUE,NA,1
"30004","F","D",8,"ball","V1","adult",349,"deaf","C_T",233,0.705882352941177,NA,"yes",FALSE,NA,1
"30004","F","D",9,"birdy","V1","adult",349,"deaf","C_T",933,0.636904761904762,NA,"yes",TRUE,NA,1
"30004","F","D",10,"sock","V1","adult",349,"deaf","C_T",1800,0.682352941176471,NA,"yes",TRUE,NA,1
"30004","F","D",11,"juice","V1","adult",349,"deaf","C_T",967,0.837078651685393,NA,"yes",TRUE,NA,1
"30004","F","D",12,"ball","V1","adult",349,"deaf","C_T",1033,0.747058823529412,NA,"yes",TRUE,NA,1
"30004","F","D",13,"cookie","V1","adult",349,"deaf","C_T",933,0.732142857142857,NA,"yes",TRUE,NA,1
"30004","F","D",14,"juice","V1","adult",349,"deaf","C_T",933,0.752941176470588,NA,"yes",TRUE,NA,1
"30004","F","D",15,"cup","V1","adult",349,"deaf","C_T",1933,0.604651162790698,NA,"yes",TRUE,NA,1
"30004","F","D",16,"juice","V1","adult",349,"deaf","C_T",2367,0.601123595505618,NA,"yes",TRUE,NA,1
"30004","F","D",17,"cookie","V1","adult",349,"deaf","C_T",NA,0.5,NA,"yes",NA,NA,1
"30004","F","D",18,"shoe","V1","adult",349,"deaf","no_shift",NA,0.5,NA,"yes",NA,NA,0
"30004","F","D",19,"kitty","V1","adult",349,"deaf","C_T",567,0.788235294117647,NA,"yes",FALSE,NA,1
"30004","F","D",21,"shoe","V1","adult",349,"deaf","C_T",1133,0.802325581395349,NA,"yes",TRUE,NA,1
"30004","F","D",22,"sock","V1","adult",349,"deaf","C_T",1833,0.580459770114943,NA,"yes",TRUE,NA,1
"30004","F","D",23,"teddy","V1","adult",349,"deaf","C_T",767,0.666666666666667,NA,"yes",TRUE,NA,1
"30004","F","D",24,"juice","V1","adult",349,"deaf","C_T",1200,0.723529411764706,NA,"yes",TRUE,NA,1
"30004","F","D",25,"birdy","V1","adult",349,"deaf","C_T",1000,0.726744186046512,NA,"yes",TRUE,NA,1
"30004","F","D",26,"cup","V1","adult",349,"deaf","C_T",1233,0.752873563218391,NA,"yes",TRUE,NA,1
"30004","F","D",27,"cookie","V1","adult",349,"deaf","C_T",800,0.602409638554217,NA,"yes",TRUE,NA,1
"30004","F","D",28,"doll","V1","adult",349,"deaf","C_T",1000,0.831460674157303,NA,"yes",TRUE,NA,1
"30004","F","D",29,"cup","V1","adult",349,"deaf","C_T",1867,0.685393258426966,NA,"yes",TRUE,NA,1
"30004","F","D",30,"juice","V1","adult",349,"deaf","C_T",1267,0.738636363636364,NA,"yes",TRUE,NA,1
"30004","F","D",31,"ball","V1","adult",349,"deaf","C_T",1000,0.831460674157303,NA,"yes",TRUE,NA,1
"30004","F","D",32,"cookie","V1","adult",349,"deaf","C_T",1067,0.820224719101124,NA,"yes",TRUE,NA,1
"30004","F","D",34,"cookie","V1","adult",349,"deaf","C_T",1133,0.72289156626506,NA,"yes",TRUE,NA,1
"30004","F","D",35,"ball","V1","adult",349,"deaf","C_T",1067,0.8125,NA,"yes",TRUE,NA,1
"30004","F","D",36,"shoe","V1","adult",349,"deaf","C_T",733,0.775862068965517,NA,"yes",TRUE,NA,1
"30004","F","D",37,"teddy","V1","adult",349,"deaf","C_T",NA,0.5,NA,"yes",NA,NA,1
"30004","F","D",38,"sock","V1","adult",349,"deaf","C_D",800,0.554878048780488,NA,"yes",TRUE,NA,0
"30004","F","D",39,"kitty","V1","adult",349,"deaf","C_T",1433,0.758426966292135,NA,"yes",TRUE,NA,1
"30004","F","D",40,"juice","V1","adult",349,"deaf","C_T",867,0.850574712643678,NA,"yes",TRUE,NA,1
"30004","F","D",41,"cookie","V1","adult",349,"deaf","C_T",767,0.788235294117647,NA,"yes",TRUE,NA,1
"30004","F","D",42,"shoe","V1","adult",349,"deaf","C_T",700,0.841176470588235,NA,"yes",TRUE,NA,1
"30004","F","D",43,"juice","V1","adult",349,"deaf","C_T",600,0.81875,NA,"yes",TRUE,NA,1
"30005","M","D",2,"doll","V1","adult",575,"deaf","C_D",767,0.810344827586207,NA,"yes",TRUE,NA,0
"30005","M","D",3,"sock","V1","adult",575,"deaf","C_T",633,0.893258426966292,NA,"yes",TRUE,NA,1
"30005","M","D",4,"juice","V1","adult",575,"deaf","C_D",767,0.819767441860465,NA,"yes",TRUE,NA,0
"30005","M","D",5,"cookie","V1","adult",575,"deaf","C_T",633,0.893258426966292,NA,"yes",TRUE,NA,1
"30005","M","D",6,"cup","V1","adult",575,"deaf","C_T",633,0.893258426966292,NA,"yes",TRUE,NA,1
"30005","M","D",7,"cookie","V1","adult",575,"deaf","C_T",533,0.911111111111111,NA,"yes",FALSE,NA,1
"30005","M","D",8,"ball","V1","adult",575,"deaf","C_T",633,0.893258426966292,NA,"yes",TRUE,NA,1
"30005","M","D",9,"birdy","V1","adult",575,"deaf","C_T",700,0.882022471910112,NA,"yes",TRUE,NA,1
"30005","M","D",10,"sock","V1","adult",575,"deaf","C_T",400,0.932584269662921,NA,"yes",FALSE,NA,1
"30005","M","D",11,"juice","V1","adult",575,"deaf","C_T",733,0.875,NA,"yes",TRUE,NA,1
"30005","M","D",12,"ball","V1","adult",575,"deaf","C_T",700,0.882022471910112,NA,"yes",TRUE,NA,1
"30005","M","D",13,"cookie","V1","adult",575,"deaf","C_T",567,0.904494382022472,NA,"yes",FALSE,NA,1
"30005","M","D",14,"juice","V1","adult",575,"deaf","C_T",600,0.898876404494382,NA,"yes",TRUE,NA,1
"30005","M","D",15,"cup","V1","adult",575,"deaf","C_T",800,0.863636363636364,NA,"yes",TRUE,NA,1
"30005","M","D",16,"shoe","V1","adult",575,"deaf","C_T",600,0.898876404494382,NA,"yes",TRUE,NA,1
"30005","M","D",17,"kitty","V1","adult",575,"deaf","C_T",667,0.887640449438202,NA,"yes",TRUE,NA,1
"30005","M","D",19,"shoe","V1","adult",575,"deaf","C_T",633,0.870588235294118,NA,"yes",TRUE,NA,1
"30005","M","D",20,"sock","V1","adult",575,"deaf","C_T",667,0.887640449438202,NA,"yes",TRUE,NA,1
"30005","M","D",21,"teddy","V1","adult",575,"deaf","C_T",1100,0.814606741573034,NA,"yes",TRUE,NA,1
"30005","M","D",22,"juice","V1","adult",575,"deaf","C_T",800,0.865168539325843,NA,"yes",TRUE,NA,1
"30005","M","D",23,"birdy","V1","adult",575,"deaf","C_T",700,0.882022471910112,NA,"yes",TRUE,NA,1
"30005","M","D",24,"cup","V1","adult",575,"deaf","C_T",967,0.761904761904762,NA,"yes",TRUE,NA,1
"30005","M","D",25,"cookie","V1","adult",575,"deaf","C_T",2233,0.614942528735632,NA,"yes",TRUE,NA,1
"30005","M","D",26,"doll","V1","adult",575,"deaf","C_T",1100,0.814606741573034,NA,"yes",TRUE,NA,1
"30005","M","D",27,"cup","V1","adult",575,"deaf","C_T",433,0.926966292134832,NA,"yes",FALSE,NA,1
"30005","M","D",28,"juice","V1","adult",575,"deaf","C_T",333,0.942528735632184,NA,"yes",FALSE,NA,1
"30005","M","D",29,"ball","V1","adult",575,"deaf","C_T",600,0.897727272727273,NA,"yes",TRUE,NA,1
"30005","M","D",30,"cookie","V1","adult",575,"deaf","C_T",400,0.932584269662921,NA,"yes",FALSE,NA,1
"30005","M","D",32,"cookie","V1","adult",575,"deaf","C_T",667,0.882352941176471,NA,"yes",TRUE,NA,1
"30005","M","D",33,"ball","V1","adult",575,"deaf","C_T",700,0.701149425287356,NA,"yes",TRUE,NA,1
"30005","M","D",34,"shoe","V1","adult",575,"deaf","C_T",867,0.845238095238095,NA,"yes",TRUE,NA,1
"30005","M","D",35,"teddy","V1","adult",575,"deaf","C_T",1133,0.808988764044944,NA,"yes",TRUE,NA,1
"30005","M","D",36,"sock","V1","adult",575,"deaf","C_T",367,0.698795180722892,NA,"yes",FALSE,NA,1
"30005","M","D",37,"kitty","V1","adult",575,"deaf","C_D",533,0.850574712643678,NA,"yes",FALSE,NA,0
"30005","M","D",38,"shoe","V1","adult",575,"deaf","C_T",367,0.938202247191011,NA,"yes",FALSE,NA,1
"30005","M","D",39,"juice","V1","adult",575,"deaf","C_T",700,0.75,NA,"yes",TRUE,NA,1
"30006","F","D",2,"doll","V1","adult",575,"deaf","C_T",767,0.630681818181818,NA,"yes",TRUE,NA,1
"30006","F","D",3,"sock","V1","adult",575,"deaf","C_T",867,0.722222222222222,NA,"yes",TRUE,NA,1
"30006","F","D",4,"juice","V1","adult",575,"deaf","C_T",933,0.835294117647059,NA,"yes",TRUE,NA,1
"30006","F","D",5,"cookie","V1","adult",575,"deaf","C_T",2700,0.512048192771084,NA,"yes",FALSE,NA,1
"30006","F","D",6,"cup","V1","adult",575,"deaf","C_T",1400,0.752941176470588,NA,"yes",TRUE,NA,1
"30006","F","D",7,"cookie","V1","adult",575,"deaf","C_T",1133,0.797619047619048,NA,"yes",TRUE,NA,1
"30006","F","D",8,"ball","V1","adult",575,"deaf","C_T",433,0.922619047619048,NA,"yes",FALSE,NA,1
"30006","F","D",9,"birdy","V1","adult",575,"deaf","C_T",NA,0.5,NA,"yes",NA,NA,1
"30006","F","D",10,"sock","V1","adult",575,"deaf","C_T",967,0.578313253012048,NA,"yes",TRUE,NA,1
"30006","F","D",11,"juice","V1","adult",575,"deaf","C_T",1300,0.778409090909091,NA,"yes",TRUE,NA,1
"30006","F","D",12,"ball","V1","adult",575,"deaf","C_T",2200,0.607142857142857,NA,"yes",TRUE,NA,1
"30006","F","D",13,"cookie","V1","adult",575,"deaf","C_T",767,0.870786516853933,NA,"yes",TRUE,NA,1
"30006","F","D",14,"juice","V1","adult",575,"deaf","C_T",900,0.75974025974026,NA,"yes",TRUE,NA,1
"30006","F","D",15,"cup","V1","adult",575,"deaf","C_T",400,0.686746987951807,NA,"yes",FALSE,NA,1
"30006","F","D",16,"shoe","V1","adult",575,"deaf","C_T",800,0.857142857142857,NA,"yes",TRUE,NA,1
"30006","F","D",17,"kitty","V1","adult",575,"deaf","C_T",2633,0.535294117647059,NA,"yes",FALSE,NA,1
"30006","F","D",19,"shoe","V1","adult",575,"deaf","C_T",1000,0.703703703703704,NA,"yes",TRUE,NA,1
"30006","F","D",20,"sock","V1","adult",575,"deaf","C_T",NA,0.5,NA,"yes",NA,NA,1
"30006","F","D",21,"teddy","V1","adult",575,"deaf","C_T",1067,0.5,NA,"yes",TRUE,NA,1
"30006","F","D",22,"juice","V1","adult",575,"deaf","C_T",800,0.688235294117647,NA,"yes",TRUE,NA,1
"30006","F","D",23,"birdy","V1","adult",575,"deaf","C_T",1367,0.553571428571429,NA,"yes",TRUE,NA,1
"30006","F","D",24,"cup","V1","adult",575,"deaf","no_shift",NA,0.5,NA,"yes",NA,NA,0
"30006","F","D",25,"cookie","V1","adult",575,"deaf","C_T",1667,0.719101123595506,NA,"yes",TRUE,NA,1
"30006","F","D",26,"doll","V1","adult",575,"deaf","C_T",1033,0.82183908045977,NA,"yes",TRUE,NA,1
"30006","F","D",27,"cup","V1","adult",575,"deaf","C_T",1733,0.694117647058824,NA,"yes",TRUE,NA,1
"30006","F","D",28,"juice","V1","adult",575,"deaf","no_shift",NA,0.5,NA,"yes",NA,NA,0
"30006","F","D",29,"ball","V1","adult",575,"deaf","C_T",233,0.63855421686747,NA,"yes",FALSE,NA,1
"30006","F","D",30,"cookie","V1","adult",575,"deaf","C_T",767,0.76530612244898,NA,"yes",TRUE,NA,1
"30006","F","D",32,"cookie","V1","adult",575,"deaf","C_T",1867,0.603658536585366,NA,"yes",TRUE,NA,1
"30006","F","D",33,"ball","V1","adult",575,"deaf","C_T",1067,0.80952380952381,NA,"yes",TRUE,NA,1
"30006","F","D",34,"shoe","V1","adult",575,"deaf","C_T",1700,0.696629213483146,NA,"yes",TRUE,NA,1
"30006","F","D",35,"teddy","V1","adult",575,"deaf","C_T",1600,0.60625,NA,"yes",TRUE,NA,1
"30006","F","D",36,"sock","V1","adult",575,"deaf","no_shift",NA,0.5,NA,"yes",NA,NA,0
"30006","F","D",37,"kitty","V1","adult",575,"deaf","C_T",1500,0.75,NA,"yes",TRUE,NA,1
"30006","F","D",38,"shoe","V1","adult",575,"deaf","C_T",1100,0.530864197530864,NA,"yes",TRUE,NA,1
"30006","F","D",39,"juice","V1","adult",575,"deaf","C_D",1567,0.276470588235294,NA,"yes",TRUE,NA,0
"30007","F","D",2,"doll","V1","adult",695,"deaf","C_T",767,0.819277108433735,NA,"yes",TRUE,NA,1
"30007","F","D",3,"sock","V1","adult",695,"deaf","C_T",400,0.623529411764706,NA,"yes",FALSE,NA,1
"30007","F","D",4,"juice","V1","adult",695,"deaf","C_T",833,0.65,NA,"yes",TRUE,NA,1
"30007","F","D",5,"cookie","V1","adult",695,"deaf","C_T",567,0.634146341463415,NA,"yes",FALSE,NA,1
"30007","F","D",6,"cup","V1","adult",695,"deaf","C_T",333,0.641975308641975,NA,"yes",FALSE,NA,1
"30007","F","D",7,"cookie","V1","adult",695,"deaf","C_T",700,0.628205128205128,NA,"yes",TRUE,NA,1
"30007","F","D",8,"ball","V1","adult",695,"deaf","C_T",400,0.586666666666667,NA,"yes",FALSE,NA,1
"30007","F","D",9,"birdy","V1","adult",695,"deaf","C_T",400,0.695121951219512,NA,"yes",FALSE,NA,1
"30007","F","D",10,"sock","V1","adult",695,"deaf","C_T",200,0.6375,NA,"yes",FALSE,NA,1
"30007","F","D",11,"juice","V1","adult",695,"deaf","C_T",467,0.6375,NA,"yes",FALSE,NA,1
"30007","F","D",12,"ball","V1","adult",695,"deaf","C_T",267,0.645569620253165,NA,"yes",FALSE,NA,1
"30007","F","D",13,"cookie","V1","adult",695,"deaf","C_T",633,0.65,NA,"yes",TRUE,NA,1
"30007","F","D",14,"juice","V1","adult",695,"deaf","C_T",633,0.574626865671642,NA,"yes",TRUE,NA,1
"30007","F","D",15,"cup","V1","adult",695,"deaf","C_T",300,0.648148148148148,NA,"yes",FALSE,NA,1
"30007","F","D",16,"shoe","V1","adult",695,"deaf","C_T",300,0.666666666666667,NA,"yes",FALSE,NA,1
"30007","F","D",17,"kitty","V1","adult",695,"deaf","C_T",367,0.651898734177215,NA,"yes",FALSE,NA,1
"30007","F","D",19,"shoe","V1","adult",695,"deaf","C_T",267,0.69375,NA,"yes",FALSE,NA,1
"30007","F","D",20,"sock","V1","adult",695,"deaf","C_T",233,0.674698795180723,NA,"yes",FALSE,NA,1
"30007","F","D",21,"teddy","V1","adult",695,"deaf","C_T",533,0.852564102564103,NA,"yes",FALSE,NA,1
"30007","F","D",22,"juice","V1","adult",695,"deaf","C_T",567,0.66875,NA,"yes",FALSE,NA,1
"30007","F","D",23,"birdy","V1","adult",695,"deaf","C_T",300,0.730769230769231,NA,"yes",FALSE,NA,1
"30007","F","D",24,"cup","V1","adult",695,"deaf","C_T",267,0.823170731707317,NA,"yes",FALSE,NA,1
"30007","F","D",25,"cookie","V1","adult",695,"deaf","C_T",400,0.648148148148148,NA,"yes",FALSE,NA,1
"30007","F","D",26,"doll","V1","adult",695,"deaf","C_T",267,0.682432432432432,NA,"yes",FALSE,NA,1
"30007","F","D",27,"cup","V1","adult",695,"deaf","C_T",200,0.708333333333333,NA,"yes",FALSE,NA,1
"30007","F","D",28,"juice","V1","adult",695,"deaf","C_T",467,0.666666666666667,NA,"yes",FALSE,NA,1
"30009","F","D",2,"doll","V1","child",39,"hearing","C_T",933,0.75,81,"yes",TRUE,"OK",1
"30009","F","D",3,"car","V1","child",39,"hearing","C_D",1033,0.560240963855422,81,"yes",TRUE,"OK",0
"30009","F","D",4,"ball","V1","child",39,"hearing","C_T",833,0.536144578313253,81,"yes",TRUE,"OK",1
"30009","F","D",5,"teddy","V1","child",39,"hearing","C_D",967,0.481012658227848,81,"yes",TRUE,"OK",0
"30009","F","D",6,"shoe","V1","child",39,"hearing","C_T",767,0.823529411764706,81,"yes",TRUE,"OK",1
"30009","F","D",7,"birdy","V1","child",39,"hearing","C_T",1067,0.818181818181818,81,"yes",TRUE,"OK",1
"30009","F","D",8,"book","V1","child",39,"hearing","C_T",1067,0.666666666666667,81,"yes",TRUE,"OK",1
"30009","F","D",9,"kitty","V1","child",39,"hearing","C_T",2933,0.50561797752809,81,"yes",FALSE,"OK",1
"30009","F","D",11,"book","V1","child",39,"hearing","C_T",667,0.887640449438202,81,"yes",TRUE,"OK",1
"30009","F","D",12,"kitty","V1","child",39,"hearing","C_T",833,0.73780487804878,81,"yes",TRUE,"OK",1
"30009","F","D",13,"teddy","V1","child",39,"hearing","C_T",1733,0.707865168539326,81,"yes",TRUE,"OK",1
"30009","F","D",14,"ball","V1","child",39,"hearing","C_T",933,0.557471264367816,81,"yes",TRUE,"OK",1
"30009","F","D",15,"birdy","V1","child",39,"hearing","C_T",600,0.49375,81,"yes",TRUE,"OK",1
"30009","F","A",16,"doll","V1","child",39,"hearing","off_signer",167,0.696428571428571,81,"yes",FALSE,"OK",0
"30009","F","D",17,"car","V1","child",39,"hearing","C_T",700,0.755813953488372,81,"yes",TRUE,"OK",1
"30009","F","D",18,"shoe","V1","child",39,"hearing","C_T",533,0.728395061728395,81,"yes",FALSE,"OK",1
"30009","F","D",20,"birdy","V1","child",39,"hearing","C_D",433,0.241176470588235,81,"yes",FALSE,"OK",0
"30009","F","D",21,"book","V1","child",39,"hearing","C_T",1533,0.744444444444444,81,"yes",TRUE,"OK",1
"30009","F","D",22,"ball","V1","child",39,"hearing","C_T",767,0.36046511627907,81,"yes",TRUE,"OK",1
"30009","F","D",23,"teddy","V1","child",39,"hearing","C_T",800,0.866666666666667,81,"yes",TRUE,"OK",1
"30009","F","A",24,"car","V1","child",39,"hearing","off_signer",0,0.855421686746988,81,"yes",FALSE,"OK",0
"30009","F","D",25,"kitty","V1","child",39,"hearing","C_D",933,0.323170731707317,81,"yes",TRUE,"OK",0
"30009","F","D",26,"shoe","V1","child",39,"hearing","C_D",700,0.591463414634146,81,"yes",TRUE,"OK",0
"30009","F","D",27,"doll","V1","child",39,"hearing","C_D",1533,0.630952380952381,81,"yes",TRUE,"OK",0
"30009","F","A",29,"kitty","V1","child",39,"hearing","off_signer",867,0.377906976744186,81,"yes",TRUE,"OK",0
"30009","F","A",30,"ball","V1","child",39,"hearing","off_signer",0,0.21875,81,"yes",FALSE,"OK",0
"30009","F","A",31,"teddy","V1","child",39,"hearing","off_signer",0,1,81,"yes",FALSE,"OK",0
"30009","F","D",32,"birdy","V1","child",39,"hearing","C_C",33,0.337837837837838,81,"yes",FALSE,"OK",0
"30009","F","D",33,"book","V1","child",39,"hearing","no_shift",NA,0.5,81,"yes",NA,"OK",0
"30009","F","A",34,"shoe","V1","child",39,"hearing","off_signer",0,1,81,"yes",FALSE,"OK",0
"30009","F","D",35,"doll","V1","child",39,"hearing","C_T",1867,0.685393258426966,81,"yes",TRUE,"OK",1
"30010","F","D",2,"doll","V1","child",44,"hearing","C_T",1133,0.732558139534884,77,"yes",TRUE,"OK",1
"30010","F","D",3,"car","V1","child",44,"hearing","C_T",1000,0.820224719101124,77,"yes",TRUE,"OK",1
"30010","F","D",4,"ball","V1","child",44,"hearing","C_T",1333,0.775280898876405,77,"yes",TRUE,"OK",1
"30010","F","D",5,"teddy","V1","child",44,"hearing","C_T",967,0.810344827586207,77,"yes",TRUE,"OK",1
"30010","F","D",6,"shoe","V1","child",44,"hearing","C_T",1000,0.732558139534884,77,"yes",TRUE,"OK",1
"30010","F","D",7,"birdy","V1","child",44,"hearing","C_T",1133,0.808988764044944,77,"yes",TRUE,"OK",1
"30010","F","D",8,"book","V1","child",44,"hearing","C_D",933,0.711764705882353,77,"yes",TRUE,"OK",0
"30010","F","D",9,"kitty","V1","child",44,"hearing","C_D",1400,0.666666666666667,77,"yes",TRUE,"OK",0
"30010","F","D",11,"book","V1","child",44,"hearing","C_T",1567,0.735955056179775,77,"yes",TRUE,"OK",1
"30010","F","D",12,"kitty","V1","child",44,"hearing","C_T",1433,0.672619047619048,77,"yes",TRUE,"OK",1
"30010","F","D",13,"teddy","V1","child",44,"hearing","C_T",767,0.674157303370786,77,"yes",TRUE,"OK",1
"30010","F","D",14,"ball","V1","child",44,"hearing","C_T",1433,0.691860465116279,77,"yes",TRUE,"OK",1
"30010","F","D",15,"birdy","V1","child",44,"hearing","C_D",867,0.71264367816092,77,"yes",TRUE,"OK",0
"30010","F","D",16,"doll","V1","child",44,"hearing","C_T",1200,0.793103448275862,77,"yes",TRUE,"OK",1
"30010","F","D",17,"car","V1","child",44,"hearing","C_T",1300,0.770588235294118,77,"yes",TRUE,"OK",1
"30010","F","D",18,"shoe","V1","child",44,"hearing","C_T",2000,0.662921348314607,77,"yes",TRUE,"OK",1
"30010","F","D",20,"birdy","V1","child",44,"hearing","C_T",700,0.574074074074074,77,"yes",TRUE,"OK",1
"30010","F","D",21,"book","V1","child",44,"hearing","no_shift",NA,0.5,77,"yes",NA,"OK",0
"30010","F","A",22,"ball","V1","child",44,"hearing","off_signer",100,0.607142857142857,77,"yes",FALSE,"OK",0
"30010","F","A",23,"teddy","V1","child",44,"hearing","off_signer",733,0.458823529411765,77,"yes",TRUE,"OK",0
"30010","F","D",24,"car","V1","child",44,"hearing","C_T",933,0.842696629213483,77,"yes",TRUE,"OK",1
"30010","F","A",25,"kitty","V1","child",44,"hearing","off_signer",67,0.65625,77,"yes",FALSE,"OK",0
"30010","F","D",26,"shoe","V1","child",44,"hearing","C_D",2333,0.471264367816092,77,"yes",TRUE,"OK",0
"30010","F","D",27,"doll","V1","child",44,"hearing","C_D",2033,0.464705882352941,77,"yes",TRUE,"OK",0
"30010","F","A",29,"kitty","V1","child",44,"hearing","off_signer",0,0.578947368421053,77,"yes",FALSE,"OK",0
"30010","F","D",30,"ball","V1","child",44,"hearing","C_T",900,0.670731707317073,77,"yes",TRUE,"OK",1
"30010","F","D",31,"teddy","V1","child",44,"hearing","C_D",1133,0.732558139534884,77,"yes",TRUE,"OK",0
"30010","F","A",32,"birdy","V1","child",44,"hearing","off_signer",NA,NA,77,"yes",NA,"OK",0
"30010","F","D",33,"book","V1","child",44,"hearing","C_T",833,0.854651162790698,77,"yes",TRUE,"OK",1
"30010","F","D",34,"shoe","V1","child",44,"hearing","C_T",2867,0.51685393258427,77,"yes",FALSE,"OK",1
"30010","F","D",35,"doll","V1","child",44,"hearing","C_T",1367,0.666666666666667,77,"yes",TRUE,"OK",1
"30010","F","D",36,"car","V1","child",44,"hearing","C_T",1267,0.788888888888889,77,"yes",TRUE,"OK",1
"30011","M","D",2,"doll","V1","child",16,"deaf","C_T",1633,0.701149425287356,19,"yes",TRUE,"OK",1
"30011","M","D",3,"car","V1","child",16,"deaf","C_D",1467,0.375,19,"yes",TRUE,"OK",0
"30011","M","D",4,"ball","V1","child",16,"deaf","C_T",2200,0.592592592592593,19,"yes",TRUE,"OK",1
"30011","M","D",5,"teddy","V1","child",16,"deaf","C_T",1633,0.56547619047619,19,"yes",TRUE,"OK",1
"30011","M","D",6,"shoe","V1","child",16,"deaf","no_shift",NA,0.5,19,"yes",NA,"OK",0
"30011","M","D",7,"birdy","V1","child",16,"deaf","no_shift",NA,0.5,19,"yes",NA,"OK",0
"30011","M","A",8,"book","V1","child",16,"deaf","off_signer",NA,0,19,"yes",NA,"OK",0
"30011","M","D",9,"kitty","V1","child",16,"deaf","C_T",NA,0.5,19,"yes",NA,"OK",1
"30011","M","A",11,"book","V1","child",16,"deaf","off_signer",NA,1,19,"yes",NA,"OK",0
"30011","M","A",15,"birdy","V1","child",16,"deaf","off_signer",NA,0.854838709677419,19,"yes",NA,"OK",0
"30011","M","A",18,"shoe","V1","child",16,"deaf","off_signer",NA,0,19,"yes",NA,"OK",0
"30011","M","A",20,"birdy","V1","child",16,"deaf","off_signer",NA,1,19,"yes",NA,"OK",0
"30014","M","D",2,"doll","V1","child",33,"deaf","C_D",NA,0.5,80,"yes",NA,"OK",0
"30014","M","A",3,"car","V1","child",33,"deaf","off_signer",0,0.707792207792208,80,"yes",FALSE,"OK",0
"30014","M","A",6,"shoe","V1","child",33,"deaf","off_signer",NA,0.701754385964912,80,"yes",NA,"OK",0
"30014","M","D",7,"birdy","V1","child",33,"deaf","C_T",1167,0.784090909090909,80,"yes",TRUE,"OK",1
"30014","M","D",12,"kitty","V1","child",33,"deaf","C_D",2533,0.452380952380952,80,"yes",FALSE,"OK",0
"30014","M","A",13,"teddy","V1","child",33,"deaf","off_signer",NA,0.154929577464789,80,"yes",NA,"OK",0
"30014","M","D",14,"ball","V1","child",33,"deaf","C_T",1633,0.673333333333333,80,"yes",TRUE,"OK",1
"30014","M","D",15,"birdy","V1","child",33,"deaf","C_D",533,0.693877551020408,80,"yes",FALSE,"OK",0
"30014","M","D",16,"doll","V1","child",33,"deaf","no_shift",NA,0.5,80,"yes",NA,"OK",0
"30014","M","A",17,"car","V1","child",33,"deaf","off_signer",NA,0.45,80,"yes",NA,"OK",0
"30014","M","D",18,"shoe","V1","child",33,"deaf","C_T",1800,0.657303370786517,80,"yes",TRUE,"OK",1
"30014","M","D",20,"birdy","V1","child",33,"deaf","C_T",1200,0.608433734939759,80,"yes",TRUE,"OK",1
"30014","M","D",21,"book","V1","child",33,"deaf","no_shift",NA,0.5,80,"yes",NA,"OK",0
"30014","M","D",22,"ball","V1","child",33,"deaf","C_T",1367,0.664772727272727,80,"yes",TRUE,"OK",1
"30014","M","D",23,"teddy","V1","child",33,"deaf","C_T",1333,0.517241379310345,80,"yes",TRUE,"OK",1
"30014","M","A",24,"car","V1","child",33,"deaf","off_signer",0,0.666666666666667,80,"yes",FALSE,"OK",0
"30014","M","D",25,"kitty","V1","child",33,"deaf","C_T",1033,0.575581395348837,80,"yes",TRUE,"OK",1
"30014","M","D",26,"shoe","V1","child",33,"deaf","C_T",633,0.62962962962963,80,"yes",TRUE,"OK",1
"30014","M","D",27,"doll","V1","child",33,"deaf","C_D",2400,0.477272727272727,80,"yes",TRUE,"OK",0
"30014","M","A",30,"ball","V1","child",33,"deaf","off_signer",0,0.61875,80,"yes",FALSE,"OK",0
"30014","M","D",31,"teddy","V1","child",33,"deaf","C_T",1367,0.53448275862069,80,"yes",TRUE,"OK",1
"30014","M","D",34,"shoe","V1","child",33,"deaf","C_D",1600,0.563218390804598,80,"yes",TRUE,"OK",0
"30014","M","A",35,"doll","V1","child",33,"deaf","off_signer",533,0.516666666666667,80,"yes",FALSE,"OK",0
"30014","M","D",36,"car","V1","child",33,"deaf","C_T",1300,0.695402298850575,80,"yes",TRUE,"OK",1
"30015","F","D",2,"doll","V1","child",21,"deaf","C_T",1633,0.696428571428571,41,"yes",TRUE,"OK",1
"30015","F","D",3,"car","V1","child",21,"deaf","C_D",1300,0.557471264367816,41,"yes",TRUE,"OK",0
"30015","F","D",4,"ball","V1","child",21,"deaf","C_T",NA,0.5,41,"yes",NA,"OK",1
"30015","F","A",5,"teddy","V1","child",21,"deaf","off_signer",33,0.238636363636364,41,"yes",FALSE,"OK",0
"30015","F","A",6,"shoe","V1","child",21,"deaf","off_signer",167,0.723529411764706,41,"yes",FALSE,"OK",0
"30015","F","A",8,"book","V1","child",21,"deaf","off_signer",0,0.764044943820225,41,"yes",FALSE,"OK",0
"30015","F","D",9,"kitty","V1","child",21,"deaf","C_D",1200,0.67816091954023,41,"yes",TRUE,"OK",0
"30015","F","D",13,"teddy","V1","child",21,"deaf","C_T",33,0.753164556962025,41,"yes",FALSE,"OK",1
"30015","F","A",14,"ball","V1","child",21,"deaf","off_signer",1633,0.682352941176471,41,"yes",TRUE,"OK",0
"30015","F","D",18,"shoe","V1","child",21,"deaf","C_T",800,0.764705882352941,41,"yes",TRUE,"OK",1
"30015","F","A",22,"ball","V1","child",21,"deaf","off_signer",600,0.235294117647059,41,"yes",TRUE,"OK",0
"30015","F","A",25,"kitty","V1","child",21,"deaf","off_signer",NA,1,41,"yes",NA,"OK",0
"30015","F","D",26,"shoe","V1","child",21,"deaf","C_T",1467,0.752808988764045,41,"yes",TRUE,"OK",1
"30015","F","A",30,"ball","V1","child",21,"deaf","off_signer",900,0.603448275862069,41,"yes",TRUE,"OK",0
"30015","F","A",31,"teddy","V1","child",21,"deaf","off_signer",933,0.551136363636364,41,"yes",TRUE,"OK",0
"30015","F","D",32,"birdy","V1","child",21,"deaf","C_T",1133,0.601190476190476,41,"yes",TRUE,"OK",1
"30015","F","D",33,"book","V1","child",21,"deaf","C_T",333,0.805882352941176,41,"yes",FALSE,"OK",1
"30018","M","D",2,"doll","V1","child",18,"hearing","C_D",1133,0.5,41,"yes",TRUE,"OK",0
"30018","M","D",3,"car","V1","child",18,"hearing","C_T",NA,0.5,41,"yes",NA,"OK",1
"30018","M","D",4,"ball","V1","child",18,"hearing","C_T",1300,0.452941176470588,41,"yes",TRUE,"OK",1
"30018","M","D",5,"teddy","V1","child",18,"hearing","C_D",967,0.580246913580247,41,"yes",TRUE,"OK",0
"30018","M","D",6,"shoe","V1","child",18,"hearing","C_D",1000,0.594117647058824,41,"yes",TRUE,"OK",0
"30018","M","D",7,"birdy","V1","child",18,"hearing","C_D",1067,0.535294117647059,41,"yes",TRUE,"OK",0
"30018","M","D",8,"book","V1","child",18,"hearing","C_T",1367,0.640350877192982,41,"yes",TRUE,"OK",1
"30018","M","D",9,"kitty","V1","child",18,"hearing","C_T",700,0.658823529411765,41,"yes",TRUE,"OK",1
"30018","M","D",12,"kitty","V1","child",18,"hearing","C_D",767,0.541176470588235,41,"yes",TRUE,"OK",0
"30018","M","D",13,"teddy","V1","child",18,"hearing","C_T",600,0.726190476190476,41,"yes",TRUE,"OK",1
"30018","M","D",14,"ball","V1","child",18,"hearing","C_T",1033,0.641176470588235,41,"yes",TRUE,"OK",1
"30018","M","D",15,"birdy","V1","child",18,"hearing","C_T",667,0.590361445783133,41,"yes",TRUE,"OK",1
"30018","M","D",16,"doll","V1","child",18,"hearing","C_D",1233,0.379310344827586,41,"yes",TRUE,"OK",0
"30018","M","D",17,"car","V1","child",18,"hearing","C_T",700,0.574712643678161,41,"yes",TRUE,"OK",1
"30018","M","D",18,"shoe","V1","child",18,"hearing","C_T",967,0.837078651685393,41,"yes",TRUE,"OK",1
"30018","M","D",20,"birdy","V1","child",18,"hearing","C_D",800,0.541176470588235,41,"yes",TRUE,"OK",0
"30018","M","D",21,"book","V1","child",18,"hearing","C_D",1133,0.353846153846154,41,"yes",TRUE,"OK",0
"30018","M","D",22,"ball","V1","child",18,"hearing","C_T",800,0.741176470588235,41,"yes",TRUE,"OK",1
"30018","M","D",23,"teddy","V1","child",18,"hearing","C_D",767,0.570588235294118,41,"yes",TRUE,"OK",0
"30018","M","D",24,"car","V1","child",18,"hearing","C_D",867,0.523529411764706,41,"yes",TRUE,"OK",0
"30018","M","D",25,"kitty","V1","child",18,"hearing","C_T",733,0.862068965517241,41,"yes",TRUE,"OK",1
"30018","M","D",26,"shoe","V1","child",18,"hearing","C_D",567,0.798850574712644,41,"yes",FALSE,"OK",0
"30018","M","D",27,"doll","V1","child",18,"hearing","C_T",1200,0.348837209302326,41,"yes",TRUE,"OK",1
"30018","M","D",29,"kitty","V1","child",18,"hearing","C_T",1033,0.825842696629214,41,"yes",TRUE,"OK",1
"30018","M","D",30,"ball","V1","child",18,"hearing","C_T",700,0.67816091954023,41,"yes",TRUE,"OK",1
"30018","M","D",31,"teddy","V1","child",18,"hearing","C_D",667,0.523529411764706,41,"yes",TRUE,"OK",0
"30018","M","D",32,"birdy","V1","child",18,"hearing","C_T",767,0.591463414634146,41,"yes",TRUE,"OK",1
"30018","M","D",33,"book","V1","child",18,"hearing","C_D",1000,0.387640449438202,41,"yes",TRUE,"OK",0
"30018","M","D",34,"shoe","V1","child",18,"hearing","C_T",867,0.758620689655172,41,"yes",TRUE,"OK",1
"30019","M","D",2,"doll","V1","child",29,"deaf","C_D",NA,0.5,76,"yes",NA,"OK",0
"30019","M","D",3,"car","V1","child",29,"deaf","C_T",1233,0.772727272727273,76,"yes",TRUE,"OK",1
"30019","M","D",4,"ball","V1","child",29,"deaf","no_shift",NA,0.5,76,"yes",NA,"OK",0
"30019","M","D",5,"teddy","V1","child",29,"deaf","C_T",933,0.718390804597701,76,"yes",TRUE,"OK",1
"30019","M","D",6,"shoe","V1","child",29,"deaf","C_T",933,0.738636363636364,76,"yes",TRUE,"OK",1
"30019","M","D",7,"birdy","V1","child",29,"deaf","C_T",900,0.620481927710843,76,"yes",TRUE,"OK",1
"30019","M","D",8,"book","V1","child",29,"deaf","C_T",1333,0.775280898876405,76,"yes",TRUE,"OK",1
"30019","M","A",9,"kitty","V1","child",29,"deaf","off_signer",2667,0.650602409638554,76,"yes",FALSE,"OK",0
"30019","M","D",11,"book","V1","child",29,"deaf","C_T",667,0.887640449438202,76,"yes",TRUE,"OK",1
"30019","M","D",12,"kitty","V1","child",29,"deaf","C_T",633,0.893258426966292,76,"yes",TRUE,"OK",1
"30019","M","D",13,"teddy","V1","child",29,"deaf","C_T",567,0.901162790697674,76,"yes",FALSE,"OK",1
"30019","M","D",14,"ball","V1","child",29,"deaf","C_T",933,0.842696629213483,76,"yes",TRUE,"OK",1
"30019","M","A",15,"birdy","V1","child",29,"deaf","off_signer",NA,0.359550561797753,76,"yes",NA,"OK",0
"30019","M","D",16,"doll","V1","child",29,"deaf","C_D",1167,0.626436781609195,76,"yes",TRUE,"OK",0
"30019","M","D",17,"car","V1","child",29,"deaf","C_T",833,0.85632183908046,76,"yes",TRUE,"OK",1
"30019","M","D",18,"shoe","V1","child",29,"deaf","C_T",767,0.864705882352941,76,"yes",TRUE,"OK",1
"30019","M","D",20,"birdy","V1","child",29,"deaf","C_T",800,0.865168539325843,76,"yes",TRUE,"OK",1
"30019","M","D",22,"ball","V1","child",29,"deaf","C_T",1767,0.702247191011236,76,"yes",TRUE,"OK",1
"30019","M","D",23,"teddy","V1","child",29,"deaf","C_D",767,0.605882352941176,76,"yes",TRUE,"OK",0
"30019","M","D",24,"car","V1","child",29,"deaf","C_T",767,0.827586206896552,76,"yes",TRUE,"OK",1
"30019","M","D",25,"kitty","V1","child",29,"deaf","C_T",667,0.882352941176471,76,"yes",TRUE,"OK",1
"30019","M","D",26,"shoe","V1","child",29,"deaf","C_T",767,0.655172413793103,76,"yes",TRUE,"OK",1
"30019","M","D",27,"doll","V1","child",29,"deaf","C_D",1100,0.572289156626506,76,"yes",TRUE,"OK",0
"30019","M","D",30,"ball","V1","child",29,"deaf","C_T",967,0.441176470588235,76,"yes",TRUE,"OK",1
"30019","M","D",31,"teddy","V1","child",29,"deaf","C_T",800,0.865168539325843,76,"yes",TRUE,"OK",1
"30019","M","D",35,"doll","V1","child",29,"deaf","C_D",1200,0.202247191011236,76,"yes",TRUE,"OK",0
"30020","M","D",2,"doll","V1","child",35,"hearing","C_D",1533,0.298850574712644,73,"yes",TRUE,"OK",0
"30020","M","D",3,"car","V1","child",35,"hearing","C_T",1567,0.613333333333333,73,"yes",TRUE,"OK",1
"30020","M","D",4,"ball","V1","child",35,"hearing","C_T",1700,0.673076923076923,73,"yes",TRUE,"OK",1
"30020","M","D",5,"teddy","V1","child",35,"hearing","C_T",933,0.766666666666667,73,"yes",TRUE,"OK",1
"30020","M","D",6,"shoe","V1","child",35,"hearing","C_T",667,0.767441860465116,73,"yes",TRUE,"OK",1
"30020","M","D",7,"birdy","V1","child",35,"hearing","C_T",1167,0.65,73,"yes",TRUE,"OK",1
"30020","M","D",8,"book","V1","child",35,"hearing","C_T",900,0.666666666666667,73,"yes",TRUE,"OK",1
"30020","M","D",9,"kitty","V1","child",35,"hearing","C_T",700,0.58,73,"yes",TRUE,"OK",1
"30020","M","D",11,"book","V1","child",35,"hearing","C_T",1867,0.685393258426966,73,"yes",TRUE,"OK",1
"30020","M","D",12,"kitty","V1","child",35,"hearing","C_T",1133,0.77027027027027,73,"yes",TRUE,"OK",1
"30020","M","D",13,"teddy","V1","child",35,"hearing","C_T",867,0.628571428571429,73,"yes",TRUE,"OK",1
"30020","M","D",14,"ball","V1","child",35,"hearing","C_T",1133,0.808988764044944,73,"yes",TRUE,"OK",1
"30020","M","D",18,"shoe","V1","child",35,"hearing","C_T",2500,0.578651685393258,73,"yes",TRUE,"OK",1
"30020","M","D",20,"birdy","V1","child",35,"hearing","C_T",900,0.839285714285714,73,"yes",TRUE,"OK",1
"30020","M","D",21,"book","V1","child",35,"hearing","C_D",1333,0.582352941176471,73,"yes",TRUE,"OK",0
"30021","M","D",2,"doll","V1","adult",694,"deaf","C_T",967,0.837078651685393,NA,"yes",TRUE,NA,1
"30021","M","D",3,"sock","V1","adult",694,"deaf","C_T",867,0.853932584269663,NA,"yes",TRUE,NA,1
"30021","M","D",4,"juice","V1","adult",694,"deaf","C_T",833,0.859550561797753,NA,"yes",TRUE,NA,1
"30021","M","D",5,"cookie","V1","adult",694,"deaf","C_T",1067,0.820224719101124,NA,"yes",TRUE,NA,1
"30021","M","D",6,"cup","V1","adult",694,"deaf","C_T",700,0.820987654320988,NA,"yes",TRUE,NA,1
"30021","M","D",7,"cookie","V1","adult",694,"deaf","C_T",733,0.876404494382023,NA,"yes",TRUE,NA,1
"30021","M","D",8,"ball","V1","adult",694,"deaf","C_T",867,0.820987654320988,NA,"yes",TRUE,NA,1
"30021","M","D",9,"birdy","V1","adult",694,"deaf","C_T",1167,0.803370786516854,NA,"yes",TRUE,NA,1
"30021","M","D",10,"sock","V1","adult",694,"deaf","C_T",767,0.872222222222222,NA,"yes",TRUE,NA,1
"30021","M","D",11,"juice","V1","adult",694,"deaf","C_T",667,0.67948717948718,NA,"yes",TRUE,NA,1
"30021","M","D",12,"ball","V1","adult",694,"deaf","C_T",1000,0.831460674157303,NA,"yes",TRUE,NA,1
"30021","M","D",13,"cookie","V1","adult",694,"deaf","C_T",1000,0.831460674157303,NA,"yes",TRUE,NA,1
"30021","M","D",14,"juice","V1","adult",694,"deaf","C_T",767,0.870786516853933,NA,"yes",TRUE,NA,1
"30021","M","D",15,"cup","V1","adult",694,"deaf","C_T",600,0.9,NA,"yes",TRUE,NA,1
"30021","M","D",16,"shoe","V1","adult",694,"deaf","C_D",733,0.747126436781609,NA,"yes",TRUE,NA,0
"30021","M","D",17,"kitty","V1","adult",694,"deaf","C_T",967,0.837078651685393,NA,"yes",TRUE,NA,1
"30021","M","D",19,"shoe","V1","adult",694,"deaf","C_T",667,0.888888888888889,NA,"yes",TRUE,NA,1
"30021","M","D",20,"sock","V1","adult",694,"deaf","C_T",600,0.898876404494382,NA,"yes",TRUE,NA,1
"30021","M","D",21,"teddy","V1","adult",694,"deaf","C_T",1333,0.775280898876405,NA,"yes",TRUE,NA,1
"30021","M","D",22,"juice","V1","adult",694,"deaf","C_T",767,0.870786516853933,NA,"yes",TRUE,NA,1
"30021","M","D",23,"birdy","V1","adult",694,"deaf","C_T",967,0.837078651685393,NA,"yes",TRUE,NA,1
"30021","M","D",24,"cup","V1","adult",694,"deaf","C_T",767,0.870786516853933,NA,"yes",TRUE,NA,1
"30021","M","D",25,"cookie","V1","adult",694,"deaf","C_T",800,0.865168539325843,NA,"yes",TRUE,NA,1
"30021","M","D",26,"doll","V1","adult",694,"deaf","C_T",967,0.838888888888889,NA,"yes",TRUE,NA,1
"30021","M","D",27,"cup","V1","adult",694,"deaf","C_T",567,0.904494382022472,NA,"yes",FALSE,NA,1
"30021","M","D",28,"juice","V1","adult",694,"deaf","C_T",633,0.894444444444444,NA,"yes",TRUE,NA,1
"30021","M","D",29,"ball","V1","adult",694,"deaf","C_T",533,0.910112359550562,NA,"yes",FALSE,NA,1
"30021","M","D",30,"cookie","V1","adult",694,"deaf","C_T",867,0.853932584269663,NA,"yes",TRUE,NA,1
"30021","M","D",32,"cookie","V1","adult",694,"deaf","C_T",1100,0.814606741573034,NA,"yes",TRUE,NA,1
"30021","M","D",33,"ball","V1","adult",694,"deaf","C_T",733,0.877777777777778,NA,"yes",TRUE,NA,1
"30021","M","D",34,"shoe","V1","adult",694,"deaf","C_T",633,0.893258426966292,NA,"yes",TRUE,NA,1
"30021","M","D",35,"teddy","V1","adult",694,"deaf","C_T",1233,0.792134831460674,NA,"yes",TRUE,NA,1
"30021","M","D",36,"sock","V1","adult",694,"deaf","C_T",767,0.872222222222222,NA,"yes",TRUE,NA,1
"30021","M","D",37,"kitty","V1","adult",694,"deaf","C_T",1033,0.78735632183908,NA,"yes",TRUE,NA,1
"30021","M","D",38,"shoe","V1","adult",694,"deaf","C_T",600,0.898876404494382,NA,"yes",TRUE,NA,1
"30021","M","D",39,"juice","V1","adult",694,"deaf","C_T",767,0.872222222222222,NA,"yes",TRUE,NA,1
"30022","M","D",2,"doll","V1","adult",350,"deaf","C_T",667,0.568965517241379,NA,"yes",TRUE,NA,1
"30022","M","D",3,"sock","V1","adult",350,"deaf","C_T",467,0.58433734939759,NA,"yes",FALSE,NA,1
"30022","M","D",4,"juice","V1","adult",350,"deaf","C_T",633,0.632530120481928,NA,"yes",TRUE,NA,1
"30022","M","D",5,"cookie","V1","adult",350,"deaf","C_T",967,0.672619047619048,NA,"yes",TRUE,NA,1
"30022","M","D",6,"cup","V1","adult",350,"deaf","C_T",733,0.576923076923077,NA,"yes",TRUE,NA,1
"30022","M","D",7,"cookie","V1","adult",350,"deaf","C_T",1100,0.582352941176471,NA,"yes",TRUE,NA,1
"30022","M","D",8,"ball","V1","adult",350,"deaf","C_T",900,0.576923076923077,NA,"yes",TRUE,NA,1
"30022","M","D",9,"birdy","V1","adult",350,"deaf","C_T",633,0.556818181818182,NA,"yes",TRUE,NA,1
"30022","M","D",10,"sock","V1","adult",350,"deaf","C_T",700,0.598765432098765,NA,"yes",TRUE,NA,1
"30022","M","D",11,"juice","V1","adult",350,"deaf","C_T",1733,0.567567567567568,NA,"yes",TRUE,NA,1
"30022","M","D",12,"ball","V1","adult",350,"deaf","C_T",333,0.71264367816092,NA,"yes",FALSE,NA,1
"30022","M","D",13,"cookie","V1","adult",350,"deaf","C_D",800,0.76,NA,"yes",TRUE,NA,0
"30022","M","D",14,"juice","V1","adult",350,"deaf","C_T",633,0.893258426966292,NA,"yes",TRUE,NA,1
"30022","M","D",15,"cup","V1","adult",350,"deaf","C_T",400,0.650602409638554,NA,"yes",FALSE,NA,1
"30022","M","D",16,"shoe","V1","adult",350,"deaf","C_D",667,0.795180722891566,NA,"yes",TRUE,NA,0
"30022","M","D",17,"kitty","V1","adult",350,"deaf","C_T",633,0.623376623376623,NA,"yes",TRUE,NA,1
"30022","M","D",19,"shoe","V1","adult",350,"deaf","C_T",600,0.628205128205128,NA,"yes",TRUE,NA,1
"30022","M","D",20,"sock","V1","adult",350,"deaf","C_T",1933,0.59375,NA,"yes",TRUE,NA,1
"30022","M","D",21,"teddy","V1","adult",350,"deaf","C_T",1133,0.628048780487805,NA,"yes",TRUE,NA,1
"30022","M","D",22,"juice","V1","adult",350,"deaf","C_T",433,0.6875,NA,"yes",FALSE,NA,1
"30022","M","D",23,"birdy","V1","adult",350,"deaf","C_T",433,0.654320987654321,NA,"yes",FALSE,NA,1
"30022","M","D",24,"cup","V1","adult",350,"deaf","C_T",100,0.578313253012048,NA,"yes",FALSE,NA,1
"30024","M","D",3,"car","V1","child",21,"deaf","no_shift",NA,0.5,57,"yes",NA,"OK",0
"30024","M","D",4,"ball","V1","child",21,"deaf","C_D",1700,0.296511627906977,57,"yes",TRUE,"OK",0
"30024","M","D",5,"teddy","V1","child",21,"deaf","C_T",2200,0.629213483146067,57,"yes",TRUE,"OK",1
"30024","M","D",6,"shoe","V1","child",21,"deaf","C_T",1200,0.649425287356322,57,"yes",TRUE,"OK",1
"30024","M","D",7,"birdy","V1","child",21,"deaf","C_T",1600,0.730337078651685,57,"yes",TRUE,"OK",1
"30024","M","D",8,"book","V1","child",21,"deaf","C_T",533,0.370588235294118,57,"yes",FALSE,"OK",1
"30024","M","D",9,"kitty","V1","child",21,"deaf","C_D",1533,0.431034482758621,57,"yes",TRUE,"OK",0
"30024","M","A",11,"book","V1","child",21,"deaf","off_signer",NA,0,57,"yes",NA,"OK",0
"30024","M","A",12,"kitty","V1","child",21,"deaf","off_signer",NA,0.364705882352941,57,"yes",NA,"OK",0
"30024","M","D",14,"ball","V1","child",21,"deaf","C_T",1067,0.681818181818182,57,"yes",TRUE,"OK",1
"30024","M","D",15,"birdy","V1","child",21,"deaf","C_T",733,0.574712643678161,57,"yes",TRUE,"OK",1
"30024","M","D",17,"car","V1","child",21,"deaf","C_T",667,0.539772727272727,57,"yes",TRUE,"OK",1
"30024","M","D",18,"shoe","V1","child",21,"deaf","C_D",700,0.718390804597701,57,"yes",TRUE,"OK",0
"30024","M","D",20,"birdy","V1","child",21,"deaf","C_T",1100,0.814606741573034,57,"yes",TRUE,"OK",1
"30024","M","D",22,"ball","V1","child",21,"deaf","C_D",NA,0.5,57,"yes",NA,"OK",0
"30024","M","D",23,"teddy","V1","child",21,"deaf","C_D",567,0.6,57,"yes",FALSE,"OK",0
"30024","M","D",29,"kitty","V1","child",21,"deaf","C_T",733,0.683908045977011,57,"yes",TRUE,"OK",1
"30024","M","D",30,"ball","V1","child",21,"deaf","C_T",1433,0.551724137931034,57,"yes",TRUE,"OK",1
"30024","M","A",31,"teddy","V1","child",21,"deaf","off_signer",0,0.620689655172414,57,"yes",FALSE,"OK",0
"30024","M","D",32,"birdy","V1","child",21,"deaf","C_D",533,0.0898876404494382,57,"yes",FALSE,"OK",0
"30024","M","D",33,"book","V1","child",21,"deaf","C_T",1200,0.689655172413793,57,"yes",TRUE,"OK",1
"30024","M","D",34,"shoe","V1","child",21,"deaf","C_D",533,0.833333333333333,57,"yes",FALSE,"OK",0
"30026","F","D",2,"doll","V1","child",36,"deaf","C_T",1267,0.680232558139535,50,"yes",TRUE,"OK",1
"30026","F","D",3,"car","V1","child",36,"deaf","C_T",1133,0.808988764044944,50,"yes",TRUE,"OK",1
"30026","F","D",4,"ball","V1","child",36,"deaf","C_T",1333,0.726027397260274,50,"yes",TRUE,"OK",1
"30026","F","D",7,"birdy","V1","child",36,"deaf","C_T",1133,0.666666666666667,50,"yes",TRUE,"OK",1
"30026","F","D",8,"book","V1","child",36,"deaf","C_T",1233,0.650943396226415,50,"yes",TRUE,"OK",1
"30026","F","D",9,"kitty","V1","child",36,"deaf","C_D",1100,0.558823529411765,50,"yes",TRUE,"OK",0
"30026","F","D",11,"book","V1","child",36,"deaf","C_T",1100,0.633333333333333,50,"yes",TRUE,"OK",1
"30026","F","D",13,"teddy","V1","child",36,"deaf","C_T",933,0.775862068965517,50,"yes",TRUE,"OK",1
"30026","F","D",14,"ball","V1","child",36,"deaf","C_T",933,0.658536585365854,50,"yes",TRUE,"OK",1
"30026","F","D",15,"birdy","V1","child",36,"deaf","C_D",800,0.735632183908046,50,"yes",TRUE,"OK",0
"30026","F","D",16,"doll","V1","child",36,"deaf","C_T",1067,0.752873563218391,50,"yes",TRUE,"OK",1
"30026","F","A",17,"car","V1","child",36,"deaf","off_signer",300,0.666666666666667,50,"yes",FALSE,"OK",0
"30026","F","D",18,"shoe","V1","child",36,"deaf","C_T",1033,0.825842696629214,50,"yes",TRUE,"OK",1
"30026","F","D",20,"birdy","V1","child",36,"deaf","C_T",1867,0.685393258426966,50,"yes",TRUE,"OK",1
"30026","F","D",21,"book","V1","child",36,"deaf","C_D",2800,0.471910112359551,50,"yes",FALSE,"OK",0
"30026","F","D",22,"ball","V1","child",36,"deaf","C_T",1367,0.408045977011494,50,"yes",TRUE,"OK",1
"30026","F","D",23,"teddy","V1","child",36,"deaf","C_T",1433,0.761111111111111,50,"yes",TRUE,"OK",1
"30026","F","D",24,"car","V1","child",36,"deaf","C_T",1800,0.564516129032258,50,"yes",TRUE,"OK",1
"30026","F","D",25,"kitty","V1","child",36,"deaf","C_T",633,0.893258426966292,50,"yes",TRUE,"OK",1
"30026","F","D",26,"shoe","V1","child",36,"deaf","C_D",433,0.658823529411765,50,"yes",FALSE,"OK",0
"30026","F","D",27,"doll","V1","child",36,"deaf","C_T",1267,0.528735632183908,50,"yes",TRUE,"OK",1
"30026","F","A",30,"ball","V1","child",36,"deaf","off_signer",567,0.724137931034483,50,"yes",FALSE,"OK",0
"30026","F","D",33,"book","V1","child",36,"deaf","C_T",867,0.718390804597701,50,"yes",TRUE,"OK",1
"30026","F","A",34,"shoe","V1","child",36,"deaf","off_signer",0,0.257575757575758,50,"yes",FALSE,"OK",0
"30026","F","A",35,"doll","V1","child",36,"deaf","off_signer",NA,0.898876404494382,50,"yes",NA,"OK",0
"30027","M","D",2,"doll","V1","adult",379,"deaf","C_T",1033,0.65,NA,"yes",TRUE,NA,1
"30027","M","D",3,"car","V1","adult",379,"deaf","C_T",900,0.552941176470588,NA,"yes",TRUE,NA,1
"30027","M","D",4,"ball","V1","adult",379,"deaf","C_T",1000,0.642857142857143,NA,"yes",TRUE,NA,1
"30027","M","D",5,"teddy","V1","adult",379,"deaf","C_T",1133,0.641176470588235,NA,"yes",TRUE,NA,1
"30027","M","D",6,"shoe","V1","adult",379,"deaf","C_T",900,0.582352941176471,NA,"yes",TRUE,NA,1
"30027","M","D",7,"birdy","V1","adult",379,"deaf","C_T",733,0.658823529411765,NA,"yes",TRUE,NA,1
"30027","M","D",8,"book","V1","adult",379,"deaf","C_T",700,0.616438356164384,NA,"yes",TRUE,NA,1
"30027","M","D",9,"kitty","V1","adult",379,"deaf","C_T",533,0.66875,NA,"yes",FALSE,NA,1
"30027","M","D",11,"book","V1","adult",379,"deaf","C_T",1133,0.802325581395349,NA,"yes",TRUE,NA,1
"30027","M","D",12,"kitty","V1","adult",379,"deaf","C_T",833,0.630952380952381,NA,"yes",TRUE,NA,1
"30027","M","D",13,"teddy","V1","adult",379,"deaf","C_T",700,0.6125,NA,"yes",TRUE,NA,1
"30027","M","D",14,"ball","V1","adult",379,"deaf","C_T",1133,0.621794871794872,NA,"yes",TRUE,NA,1
"30027","M","D",15,"birdy","V1","adult",379,"deaf","C_T",400,0.625,NA,"yes",FALSE,NA,1
"30027","M","D",16,"doll","V1","adult",379,"deaf","C_D",767,0.798780487804878,NA,"yes",TRUE,NA,0
"30027","M","D",17,"car","V1","adult",379,"deaf","C_T",867,0.745098039215686,NA,"yes",TRUE,NA,1
"30027","M","D",18,"shoe","V1","adult",379,"deaf","C_T",633,0.620253164556962,NA,"yes",TRUE,NA,1
"30027","M","D",20,"birdy","V1","adult",379,"deaf","C_T",767,0.621951219512195,NA,"yes",TRUE,NA,1
"30027","M","D",21,"book","V1","adult",379,"deaf","C_T",1067,0.818181818181818,NA,"yes",TRUE,NA,1
"30027","M","D",22,"ball","V1","adult",379,"deaf","C_T",600,0.646666666666667,NA,"yes",TRUE,NA,1
"30027","M","D",23,"teddy","V1","adult",379,"deaf","C_T",600,0.711538461538462,NA,"yes",TRUE,NA,1
"30027","M","D",24,"car","V1","adult",379,"deaf","C_T",600,0.601190476190476,NA,"yes",TRUE,NA,1
"30027","M","D",25,"kitty","V1","adult",379,"deaf","C_T",867,0.5875,NA,"yes",TRUE,NA,1
"30027","M","D",26,"shoe","V1","adult",379,"deaf","C_T",467,0.605263157894737,NA,"yes",FALSE,NA,1
"30027","M","D",27,"doll","V1","adult",379,"deaf","C_T",767,0.755952380952381,NA,"yes",TRUE,NA,1
"30027","M","D",29,"kitty","V1","adult",379,"deaf","C_T",800,0.623456790123457,NA,"yes",TRUE,NA,1
"30027","M","D",30,"ball","V1","adult",379,"deaf","C_T",600,0.592592592592593,NA,"yes",TRUE,NA,1
"30027","M","D",31,"teddy","V1","adult",379,"deaf","C_T",967,0.666666666666667,NA,"yes",TRUE,NA,1
"30027","M","D",32,"birdy","V1","adult",379,"deaf","C_T",833,0.608974358974359,NA,"yes",TRUE,NA,1
"30027","M","D",33,"book","V1","adult",379,"deaf","C_T",1267,0.651898734177215,NA,"yes",TRUE,NA,1
"30027","M","D",34,"shoe","V1","adult",379,"deaf","C_T",600,0.583333333333333,NA,"yes",TRUE,NA,1
"30027","M","D",35,"doll","V1","adult",379,"deaf","C_T",633,0.617283950617284,NA,"yes",TRUE,NA,1
"30027","M","D",36,"car","V1","adult",379,"deaf","C_T",833,0.625,NA,"yes",TRUE,NA,1
"30028","F","D",2,"doll","V1","child",27,"hearing","C_T",167,0.664705882352941,60,"yes",FALSE,"OK",1
"30028","F","D",3,"car","V1","child",27,"hearing","C_T",1733,0.707865168539326,60,"yes",TRUE,"OK",1
"30028","F","D",4,"ball","V1","child",27,"hearing","C_T",800,0.554878048780488,60,"yes",TRUE,"OK",1
"30028","F","A",5,"teddy","V1","child",27,"hearing","off_signer",67,0.664705882352941,60,"yes",FALSE,"OK",0
"30028","F","D",6,"shoe","V1","child",27,"hearing","C_T",900,0.597701149425287,60,"yes",TRUE,"OK",1
"30028","F","D",7,"birdy","V1","child",27,"hearing","C_D",1533,0.333333333333333,60,"yes",TRUE,"OK",0
"30028","F","D",8,"book","V1","child",27,"hearing","C_T",1133,0.808988764044944,60,"yes",TRUE,"OK",1
"30028","F","D",9,"kitty","V1","child",27,"hearing","C_D",1200,0.617647058823529,60,"yes",TRUE,"OK",0
"30028","F","A",11,"book","V1","child",27,"hearing","off_signer",2400,0.377358490566038,60,"yes",TRUE,"OK",0
"30028","F","A",12,"kitty","V1","child",27,"hearing","off_signer",NA,0.752873563218391,60,"yes",NA,"OK",0
"30028","F","A",13,"teddy","V1","child",27,"hearing","off_signer",133,0.793103448275862,60,"yes",FALSE,"OK",0
"30028","F","A",16,"doll","V1","child",27,"hearing","off_signer",1767,0.512345679012346,60,"yes",TRUE,"OK",0
"30028","F","D",17,"car","V1","child",27,"hearing","C_D",67,0.104651162790698,60,"yes",FALSE,"OK",0
"30028","F","D",18,"shoe","V1","child",27,"hearing","C_T",1133,0.64367816091954,60,"yes",TRUE,"OK",1
"30028","F","A",20,"birdy","V1","child",27,"hearing","off_signer",1133,0.481707317073171,60,"yes",TRUE,"OK",0
"30028","F","D",21,"book","V1","child",27,"hearing","C_D",333,0.647540983606557,60,"yes",FALSE,"OK",0
"30028","F","A",22,"ball","V1","child",27,"hearing","off_signer",0,0.666666666666667,60,"yes",FALSE,"OK",0
"30028","F","D",23,"teddy","V1","child",27,"hearing","C_T",800,0.613924050632911,60,"yes",TRUE,"OK",1
"30028","F","D",24,"car","V1","child",27,"hearing","C_D",400,0.403614457831325,60,"yes",FALSE,"OK",0
"30028","F","A",25,"kitty","V1","child",27,"hearing","off_signer",NA,0.764367816091954,60,"yes",NA,"OK",0
"30029","M","D",2,"doll","V1","child",35,"deaf","C_T",833,0.45625,77,"yes",TRUE,"OK",1
"30029","M","D",3,"car","V1","child",35,"deaf","C_T",1267,0.609195402298851,77,"yes",TRUE,"OK",1
"30029","M","D",4,"ball","V1","child",35,"deaf","C_T",1867,0.603448275862069,77,"yes",TRUE,"OK",1
"30029","M","D",5,"teddy","V1","child",35,"deaf","C_T",1667,0.607142857142857,77,"yes",TRUE,"OK",1
"30029","M","D",6,"shoe","V1","child",35,"deaf","C_T",767,0.755952380952381,77,"yes",TRUE,"OK",1
"30029","M","D",7,"birdy","V1","child",35,"deaf","C_T",1367,0.706896551724138,77,"yes",TRUE,"OK",1
"30029","M","D",8,"book","V1","child",35,"deaf","C_T",633,0.649425287356322,77,"yes",TRUE,"OK",1
"30029","M","D",9,"kitty","V1","child",35,"deaf","C_T",1067,0.80952380952381,77,"yes",TRUE,"OK",1
"30029","M","D",11,"book","V1","child",35,"deaf","C_T",1533,0.654761904761905,77,"yes",TRUE,"OK",1
"30029","M","D",12,"kitty","V1","child",35,"deaf","C_T",1200,0.574712643678161,77,"yes",TRUE,"OK",1
"30029","M","D",13,"teddy","V1","child",35,"deaf","C_T",700,0.882022471910112,77,"yes",TRUE,"OK",1
"30029","M","D",14,"ball","V1","child",35,"deaf","C_D",1467,0.358823529411765,77,"yes",TRUE,"OK",0
"30029","M","D",15,"birdy","V1","child",35,"deaf","no_shift",NA,0.5,77,"yes",NA,"OK",0
"30029","M","D",16,"doll","V1","child",35,"deaf","C_D",1000,0.470588235294118,77,"yes",TRUE,"OK",0
"30029","M","D",17,"car","V1","child",35,"deaf","C_T",1133,0.716666666666667,77,"yes",TRUE,"OK",1
"30029","M","D",18,"shoe","V1","child",35,"deaf","C_T",1133,0.695402298850575,77,"yes",TRUE,"OK",1
"30029","M","D",20,"birdy","V1","child",35,"deaf","C_T",767,0.55421686746988,77,"yes",TRUE,"OK",1
"30029","M","D",21,"book","V1","child",35,"deaf","C_T",733,0.782352941176471,77,"yes",TRUE,"OK",1
"30029","M","D",22,"ball","V1","child",35,"deaf","C_T",1633,0.724719101123595,77,"yes",TRUE,"OK",1
"30029","M","D",23,"teddy","V1","child",35,"deaf","C_T",1567,0.64367816091954,77,"yes",TRUE,"OK",1
"30029","M","D",24,"car","V1","child",35,"deaf","C_T",1167,0.558823529411765,77,"yes",TRUE,"OK",1
"30029","M","D",25,"kitty","V1","child",35,"deaf","C_T",1033,0.825842696629214,77,"yes",TRUE,"OK",1
"30029","M","D",26,"shoe","V1","child",35,"deaf","C_T",833,0.785714285714286,77,"yes",TRUE,"OK",1
"30029","M","D",27,"doll","V1","child",35,"deaf","C_D",1300,0.232142857142857,77,"yes",TRUE,"OK",0
"30029","M","D",29,"kitty","V1","child",35,"deaf","C_D",1233,0.603448275862069,77,"yes",TRUE,"OK",0
"30029","M","D",30,"ball","V1","child",35,"deaf","C_T",867,0.852272727272727,77,"yes",TRUE,"OK",1
"30029","M","D",31,"teddy","V1","child",35,"deaf","C_T",1300,0.780898876404494,77,"yes",TRUE,"OK",1
"30029","M","D",33,"book","V1","child",35,"deaf","C_T",1733,0.707865168539326,77,"yes",TRUE,"OK",1
"30029","M","D",34,"shoe","V1","child",35,"deaf","C_T",1333,0.770114942528736,77,"yes",TRUE,"OK",1
"30029","M","D",35,"doll","V1","child",35,"deaf","C_D",1367,0.58695652173913,77,"yes",TRUE,"OK",0
"30029","M","D",36,"car","V1","child",35,"deaf","C_T",867,0.853932584269663,77,"yes",TRUE,"OK",1
"30036","M","D",3,"car","V1","child",42,"deaf","C_T",1167,0.655172413793103,75,"yes",TRUE,"OK",1
"30036","M","D",4,"ball","V1","child",42,"deaf","C_T",2000,0.662921348314607,75,"yes",TRUE,"OK",1
"30036","M","D",5,"teddy","V1","child",42,"deaf","C_T",1567,0.735955056179775,75,"yes",TRUE,"OK",1
"30036","M","D",6,"shoe","V1","child",42,"deaf","C_T",633,0.793103448275862,75,"yes",TRUE,"OK",1
"30036","M","D",7,"birdy","V1","child",42,"deaf","C_T",967,0.758620689655172,75,"yes",TRUE,"OK",1
"30036","M","D",8,"book","V1","child",42,"deaf","C_D",900,0.668604651162791,75,"yes",TRUE,"OK",0
"30037","F","D",2,"doll","V1","child",21,"hearing","C_T",900,0.724137931034483,NA,"yes",TRUE,"OK, but no CDI",1
"30037","F","D",3,"car","V1","child",21,"hearing","C_D",767,0.604938271604938,NA,"yes",TRUE,"OK, but no CDI",0
"30037","F","D",4,"ball","V1","child",21,"hearing","no_shift",NA,0.5,NA,"yes",NA,"OK, but no CDI",0
"30037","F","D",5,"teddy","V1","child",21,"hearing","no_shift",NA,0.5,NA,"yes",NA,"OK, but no CDI",0
"30037","F","D",6,"shoe","V1","child",21,"hearing","C_T",867,0.67816091954023,NA,"yes",TRUE,"OK, but no CDI",1
"30037","F","D",7,"birdy","V1","child",21,"hearing","C_D",1167,0.413793103448276,NA,"yes",TRUE,"OK, but no CDI",0
"30037","F","D",8,"book","V1","child",21,"hearing","C_D",1267,0.329268292682927,NA,"yes",TRUE,"OK, but no CDI",0
"30037","F","D",9,"kitty","V1","child",21,"hearing","C_T",700,0.767857142857143,NA,"yes",TRUE,"OK, but no CDI",1
"30037","F","D",16,"doll","V1","child",21,"hearing","C_T",933,0.67816091954023,NA,"yes",TRUE,"OK, but no CDI",1
"30037","F","D",18,"shoe","V1","child",21,"hearing","C_T",600,0.64367816091954,NA,"yes",TRUE,"OK, but no CDI",1
"30037","F","D",20,"birdy","V1","child",21,"hearing","C_T",1167,0.803370786516854,NA,"yes",TRUE,"OK, but no CDI",1
"30037","F","D",21,"book","V1","child",21,"hearing","C_T",1967,0.668539325842697,NA,"yes",TRUE,"OK, but no CDI",1
"30037","F","D",22,"ball","V1","child",21,"hearing","C_T",1567,0.724137931034483,NA,"yes",TRUE,"OK, but no CDI",1
"30037","F","D",23,"teddy","V1","child",21,"hearing","C_T",2167,0.634831460674157,NA,"yes",TRUE,"OK, but no CDI",1
"30037","F","D",24,"car","V1","child",21,"hearing","C_T",633,0.660919540229885,NA,"yes",TRUE,"OK, but no CDI",1
"30037","F","A",29,"kitty","V1","child",21,"hearing","off_signer",0,0.652941176470588,NA,"yes",FALSE,"OK, but no CDI",0
"30037","F","D",30,"ball","V1","child",21,"hearing","C_T",600,0.71875,NA,"yes",TRUE,"OK, but no CDI",1
"30044","F","D",2,"doll","V1","adult",276,"deaf","C_T",967,0.632530120481928,NA,"yes",TRUE,NA,1
"30044","F","D",3,"car","V1","adult",276,"deaf","C_T",767,0.634615384615385,NA,"yes",TRUE,NA,1
"30044","F","D",4,"ball","V1","adult",276,"deaf","C_T",533,0.574712643678161,NA,"yes",FALSE,NA,1
"30044","F","D",5,"teddy","V1","adult",276,"deaf","C_T",500,0.679012345679012,NA,"yes",FALSE,NA,1
"30044","F","D",6,"shoe","V1","adult",276,"deaf","C_T",800,0.58433734939759,NA,"yes",TRUE,NA,1
"30044","F","D",7,"birdy","V1","adult",276,"deaf","C_T",500,0.569767441860465,NA,"yes",FALSE,NA,1
"30044","F","D",8,"book","V1","adult",276,"deaf","C_T",467,0.601190476190476,NA,"yes",FALSE,NA,1
"30044","F","D",9,"kitty","V1","adult",276,"deaf","C_T",500,0.576470588235294,NA,"yes",FALSE,NA,1
"30044","F","D",11,"book","V1","adult",276,"deaf","C_T",1000,0.582352941176471,NA,"yes",TRUE,NA,1
"30044","F","D",12,"kitty","V1","adult",276,"deaf","C_T",600,0.552941176470588,NA,"yes",TRUE,NA,1
"30044","F","D",13,"teddy","V1","adult",276,"deaf","C_T",367,0.540229885057471,NA,"yes",FALSE,NA,1
"30044","F","D",14,"ball","V1","adult",276,"deaf","C_T",533,0.534883720930233,NA,"yes",FALSE,NA,1
"30044","F","D",15,"birdy","V1","adult",276,"deaf","C_T",367,0.53448275862069,NA,"yes",FALSE,NA,1
"30044","F","D",16,"doll","V1","adult",276,"deaf","C_T",800,0.564705882352941,NA,"yes",TRUE,NA,1
"30044","F","D",17,"car","V1","adult",276,"deaf","C_T",567,0.558139534883721,NA,"yes",FALSE,NA,1
"30044","F","D",18,"shoe","V1","adult",276,"deaf","C_T",667,0.555555555555556,NA,"yes",TRUE,NA,1
"30044","F","D",20,"birdy","V1","adult",276,"deaf","C_T",533,0.547058823529412,NA,"yes",FALSE,NA,1
"30044","F","D",21,"book","V1","adult",276,"deaf","C_T",600,0.545977011494253,NA,"yes",TRUE,NA,1
"30044","F","D",22,"ball","V1","adult",276,"deaf","C_T",500,0.528735632183908,NA,"yes",FALSE,NA,1
"30044","F","D",23,"teddy","V1","adult",276,"deaf","C_T",367,0.540229885057471,NA,"yes",FALSE,NA,1
"30044","F","D",24,"car","V1","adult",276,"deaf","C_T",500,0.53448275862069,NA,"yes",FALSE,NA,1
"30044","F","D",25,"kitty","V1","adult",276,"deaf","C_T",400,0.551724137931034,NA,"yes",FALSE,NA,1
"30044","F","D",26,"shoe","V1","adult",276,"deaf","C_T",267,0.540229885057471,NA,"yes",FALSE,NA,1
"30044","F","D",27,"doll","V1","adult",276,"deaf","C_T",867,0.557471264367816,NA,"yes",TRUE,NA,1
"30044","F","D",29,"kitty","V1","adult",276,"deaf","C_T",600,0.591463414634146,NA,"yes",TRUE,NA,1
"30044","F","D",30,"ball","V1","adult",276,"deaf","C_T",400,0.542682926829268,NA,"yes",FALSE,NA,1
"30044","F","D",31,"teddy","V1","adult",276,"deaf","C_T",533,0.540229885057471,NA,"yes",FALSE,NA,1
"30044","F","D",32,"birdy","V1","adult",276,"deaf","C_T",267,0.553571428571429,NA,"yes",FALSE,NA,1
"30044","F","D",33,"book","V1","adult",276,"deaf","C_T",433,0.544943820224719,NA,"yes",FALSE,NA,1
"30044","F","D",34,"shoe","V1","adult",276,"deaf","C_T",200,0.53448275862069,NA,"yes",FALSE,NA,1
"30044","F","D",35,"doll","V1","adult",276,"deaf","C_T",533,0.545454545454545,NA,"yes",FALSE,NA,1
"30044","F","D",36,"car","V1","adult",276,"deaf","C_T",533,0.540229885057471,NA,"yes",FALSE,NA,1
"30046","F","D",2,"doll","V1","child",22,"hearing","C_T",1333,0.614942528735632,72,"yes",TRUE,"OK",1
"30046","F","D",3,"car","V1","child",22,"hearing","C_T",1967,0.626436781609195,72,"yes",TRUE,"OK",1
"30046","F","D",4,"ball","V1","child",22,"hearing","C_D",2200,0.370786516853933,72,"yes",TRUE,"OK",0
"30046","F","D",5,"teddy","V1","child",22,"hearing","C_D",833,0.488235294117647,72,"yes",TRUE,"OK",0
"30046","F","D",6,"shoe","V1","child",22,"hearing","C_T",1467,0.752808988764045,72,"yes",TRUE,"OK",1
"30046","F","D",7,"birdy","V1","child",22,"hearing","C_T",1233,0.792134831460674,72,"yes",TRUE,"OK",1
"30046","F","D",8,"book","V1","child",22,"hearing","C_T",1700,0.713483146067416,72,"yes",TRUE,"OK",1
"30046","F","D",9,"kitty","V1","child",22,"hearing","C_T",1633,0.706896551724138,72,"yes",TRUE,"OK",1
"30046","F","D",11,"book","V1","child",22,"hearing","C_T",1400,0.758620689655172,72,"yes",TRUE,"OK",1
"30046","F","A",12,"kitty","V1","child",22,"hearing","off_signer",167,0.658536585365854,72,"yes",FALSE,"OK",0
"30046","F","D",13,"teddy","V1","child",22,"hearing","no_shift",NA,0.5,72,"yes",NA,"OK",0
"30046","F","D",14,"ball","V1","child",22,"hearing","C_D",1300,0.234939759036145,72,"yes",TRUE,"OK",0
"30046","F","D",15,"birdy","V1","child",22,"hearing","C_D",600,0.701149425287356,72,"yes",TRUE,"OK",0
"30046","F","D",16,"doll","V1","child",22,"hearing","C_T",1067,0.820224719101124,72,"yes",TRUE,"OK",1
"30046","F","D",17,"car","V1","child",22,"hearing","C_T",700,0.339080459770115,72,"yes",TRUE,"OK",1
"30046","F","D",18,"shoe","V1","child",22,"hearing","C_T",333,0.626436781609195,72,"yes",FALSE,"OK",1
"30046","F","D",20,"birdy","V1","child",22,"hearing","C_T",767,0.870786516853933,72,"yes",TRUE,"OK",1
"30048","M","D",3,"car","V1","child",19,"deaf","C_T",1433,0.635294117647059,31,"yes",TRUE,"OK",1
"30048","M","D",4,"ball","V1","child",19,"deaf","C_T",1067,0.723529411764706,31,"yes",TRUE,"OK",1
"30048","M","D",5,"teddy","V1","child",19,"deaf","C_D",867,0.608433734939759,31,"yes",TRUE,"OK",0
"30048","M","D",6,"shoe","V1","child",19,"deaf","C_T",1233,0.64367816091954,31,"yes",TRUE,"OK",1
"30048","M","D",7,"birdy","V1","child",19,"deaf","C_D",1167,0.196629213483146,31,"yes",TRUE,"OK",0
"30048","M","A",8,"book","V1","child",19,"deaf","off_signer",NA,0.707865168539326,31,"yes",NA,"OK",0
"30048","M","D",9,"kitty","V1","child",19,"deaf","C_T",2267,0.617977528089888,31,"yes",TRUE,"OK",1
"30048","M","D",11,"book","V1","child",19,"deaf","C_T",1100,0.814606741573034,31,"yes",TRUE,"OK",1
"30048","M","D",12,"kitty","V1","child",19,"deaf","C_T",2400,0.595505617977528,31,"yes",TRUE,"OK",1
"30048","M","D",13,"teddy","V1","child",19,"deaf","C_T",667,0.767045454545455,31,"yes",TRUE,"OK",1
"30048","M","D",14,"ball","V1","child",19,"deaf","C_T",NA,0.5,31,"yes",NA,"OK",1
"30048","M","A",15,"birdy","V1","child",19,"deaf","off_signer",300,0.647058823529412,31,"yes",FALSE,"OK",0
"30048","M","A",17,"car","V1","child",19,"deaf","off_signer",NA,0.637931034482759,31,"yes",NA,"OK",0
"30048","M","D",18,"shoe","V1","child",19,"deaf","C_T",1500,0.747191011235955,31,"yes",TRUE,"OK",1
"30048","M","D",20,"birdy","V1","child",19,"deaf","C_T",1333,0.775280898876405,31,"yes",TRUE,"OK",1
"30048","M","D",21,"book","V1","child",19,"deaf","C_T",1100,0.744318181818182,31,"yes",TRUE,"OK",1
"30048","M","A",22,"ball","V1","child",19,"deaf","off_signer",0,0.724137931034483,31,"yes",FALSE,"OK",0
"30048","M","D",23,"teddy","V1","child",19,"deaf","C_T",700,0.614942528735632,31,"yes",TRUE,"OK",1
"30048","M","D",24,"car","V1","child",19,"deaf","C_T",1133,0.808988764044944,31,"yes",TRUE,"OK",1
"30048","M","A",25,"kitty","V1","child",19,"deaf","off_signer",567,0.672413793103448,31,"yes",FALSE,"OK",0
"30048","M","D",26,"shoe","V1","child",19,"deaf","C_T",2400,0.595505617977528,31,"yes",TRUE,"OK",1
"30048","M","D",29,"kitty","V1","child",19,"deaf","C_T",1300,0.780898876404494,31,"yes",TRUE,"OK",1
"30048","M","D",31,"teddy","V1","child",19,"deaf","C_T",2500,0.578651685393258,31,"yes",TRUE,"OK",1
"30048","M","D",32,"birdy","V1","child",19,"deaf","C_T",800,0.759493670886076,31,"yes",TRUE,"OK",1
"30048","M","D",34,"shoe","V1","child",19,"deaf","C_T",1500,0.704819277108434,31,"yes",TRUE,"OK",1
"30048","M","D",36,"car","V1","child",19,"deaf","C_T",1300,0.770588235294118,31,"yes",TRUE,"OK",1
"30059","F","D",2,"doll","V1","adult",575,"deaf","C_D",800,0.74390243902439,NA,"yes",TRUE,NA,0
"30059","F","D",3,"sock","V1","adult",575,"deaf","C_T",600,0.898876404494382,NA,"yes",TRUE,NA,1
"30059","F","D",4,"juice","V1","adult",575,"deaf","C_T",700,0.882022471910112,NA,"yes",TRUE,NA,1
"30059","F","D",5,"cookie","V1","adult",575,"deaf","C_T",1033,0.825842696629214,NA,"yes",TRUE,NA,1
"30059","F","D",6,"cup","V1","adult",575,"deaf","C_T",600,0.875,NA,"yes",TRUE,NA,1
"30059","F","D",7,"cookie","V1","adult",575,"deaf","C_T",1100,0.752873563218391,NA,"yes",TRUE,NA,1
"30059","F","D",8,"ball","V1","adult",575,"deaf","C_T",500,0.869318181818182,NA,"yes",FALSE,NA,1
"30059","F","D",9,"birdy","V1","adult",575,"deaf","C_T",700,0.882022471910112,NA,"yes",TRUE,NA,1
"30059","F","D",10,"sock","V1","adult",575,"deaf","C_T",133,0.781609195402299,NA,"yes",FALSE,NA,1
"30059","F","D",11,"juice","V1","adult",575,"deaf","C_T",467,0.801136363636364,NA,"yes",FALSE,NA,1
"30059","F","D",12,"ball","V1","adult",575,"deaf","C_T",500,0.770114942528736,NA,"yes",FALSE,NA,1
"30059","F","D",13,"cookie","V1","adult",575,"deaf","C_T",800,0.744318181818182,NA,"yes",TRUE,NA,1
"30059","F","D",14,"juice","V1","adult",575,"deaf","C_T",667,0.767045454545455,NA,"yes",TRUE,NA,1
"30059","F","D",15,"cup","V1","adult",575,"deaf","C_T",467,0.775862068965517,NA,"yes",FALSE,NA,1
"30059","F","D",16,"shoe","V1","adult",575,"deaf","C_T",1167,0.707317073170732,NA,"yes",TRUE,NA,1
"30059","F","D",17,"kitty","V1","adult",575,"deaf","C_D",767,0.741176470588235,NA,"yes",TRUE,NA,0
"30059","F","D",19,"shoe","V1","adult",575,"deaf","C_T",567,0.718390804597701,NA,"yes",FALSE,NA,1
"30059","F","D",20,"sock","V1","adult",575,"deaf","C_T",667,0.698863636363636,NA,"yes",TRUE,NA,1
"30059","F","D",21,"teddy","V1","adult",575,"deaf","C_T",1133,0.727272727272727,NA,"yes",TRUE,NA,1
"30059","F","D",22,"juice","V1","adult",575,"deaf","C_T",567,0.683908045977011,NA,"yes",FALSE,NA,1
"30059","F","D",23,"birdy","V1","adult",575,"deaf","C_T",800,0.672413793103448,NA,"yes",TRUE,NA,1
"30059","F","D",24,"cup","V1","adult",575,"deaf","C_T",467,0.686046511627907,NA,"yes",FALSE,NA,1
"30059","F","D",25,"cookie","V1","adult",575,"deaf","C_T",333,0.724137931034483,NA,"yes",FALSE,NA,1
"30059","F","D",26,"doll","V1","adult",575,"deaf","C_T",833,0.740963855421687,NA,"yes",TRUE,NA,1
"30059","F","D",27,"cup","V1","adult",575,"deaf","C_T",900,0.755952380952381,NA,"yes",TRUE,NA,1
"30059","F","D",28,"juice","V1","adult",575,"deaf","C_T",1033,0.676470588235294,NA,"yes",TRUE,NA,1
"30059","F","D",29,"ball","V1","adult",575,"deaf","C_T",367,0.655172413793103,NA,"yes",FALSE,NA,1
"30059","F","D",30,"cookie","V1","adult",575,"deaf","C_T",700,0.6875,NA,"yes",TRUE,NA,1
"30059","F","D",32,"cookie","V1","adult",575,"deaf","C_T",933,0.68125,NA,"yes",TRUE,NA,1
"30059","F","D",33,"ball","V1","adult",575,"deaf","C_T",300,0.69047619047619,NA,"yes",FALSE,NA,1
"30059","F","D",34,"shoe","V1","adult",575,"deaf","C_T",167,0.6875,NA,"yes",FALSE,NA,1
"30059","F","D",35,"teddy","V1","adult",575,"deaf","C_T",733,0.67816091954023,NA,"yes",TRUE,NA,1
"30059","F","D",36,"sock","V1","adult",575,"deaf","C_T",633,0.698863636363636,NA,"yes",TRUE,NA,1
"30059","F","D",37,"kitty","V1","adult",575,"deaf","C_T",600,0.702247191011236,NA,"yes",TRUE,NA,1
"30059","F","D",38,"shoe","V1","adult",575,"deaf","C_T",533,0.67816091954023,NA,"yes",FALSE,NA,1
"30059","F","D",39,"juice","V1","adult",575,"deaf","C_T",600,0.64367816091954,NA,"yes",TRUE,NA,1
"30060","F","D",2,"doll","V1","adult",246,"deaf","C_T",733,0.784090909090909,NA,"yes",TRUE,NA,1
"30060","F","D",3,"sock","V1","adult",246,"deaf","C_T",733,0.798850574712644,NA,"yes",TRUE,NA,1
"30060","F","D",4,"juice","V1","adult",246,"deaf","C_T",700,0.827380952380952,NA,"yes",TRUE,NA,1
"30060","F","D",5,"cookie","V1","adult",246,"deaf","C_T",467,0.785714285714286,NA,"yes",FALSE,NA,1
"30060","F","D",6,"cup","V1","adult",246,"deaf","C_T",567,0.779069767441861,NA,"yes",FALSE,NA,1
"30060","F","D",7,"cookie","V1","adult",246,"deaf","C_T",600,0.785714285714286,NA,"yes",TRUE,NA,1
"30060","F","D",8,"ball","V1","adult",246,"deaf","C_T",367,0.792682926829268,NA,"yes",FALSE,NA,1
"30060","F","D",9,"birdy","V1","adult",246,"deaf","C_T",767,0.791666666666667,NA,"yes",TRUE,NA,1
"30060","F","D",10,"sock","V1","adult",246,"deaf","C_T",833,0.784090909090909,NA,"yes",TRUE,NA,1
"30060","F","D",11,"juice","V1","adult",246,"deaf","C_T",533,0.753086419753086,NA,"yes",FALSE,NA,1
"30060","F","D",12,"ball","V1","adult",246,"deaf","C_T",333,0.744047619047619,NA,"yes",FALSE,NA,1
"30060","F","D",13,"cookie","V1","adult",246,"deaf","C_T",633,0.75,NA,"yes",TRUE,NA,1
"30060","F","D",14,"juice","V1","adult",246,"deaf","C_T",633,0.83974358974359,NA,"yes",TRUE,NA,1
"30060","F","D",15,"cup","V1","adult",246,"deaf","C_T",667,0.794117647058823,NA,"yes",TRUE,NA,1
"30060","F","D",16,"shoe","V1","adult",246,"deaf","C_T",267,0.694444444444444,NA,"yes",FALSE,NA,1
"30060","F","D",17,"kitty","V1","adult",246,"deaf","C_T",600,0.753012048192771,NA,"yes",TRUE,NA,1
"30060","F","D",19,"shoe","V1","adult",246,"deaf","C_T",567,0.753086419753086,NA,"yes",FALSE,NA,1
"30060","F","D",20,"sock","V1","adult",246,"deaf","C_T",667,0.715116279069767,NA,"yes",TRUE,NA,1
"30060","F","D",21,"teddy","V1","adult",246,"deaf","C_T",633,0.854651162790698,NA,"yes",TRUE,NA,1
"30060","F","D",22,"juice","V1","adult",246,"deaf","C_T",567,0.76875,NA,"yes",FALSE,NA,1
"30060","F","D",23,"birdy","V1","adult",246,"deaf","C_T",633,0.893258426966292,NA,"yes",TRUE,NA,1
"30060","F","D",24,"cup","V1","adult",246,"deaf","C_T",467,0.8,NA,"yes",FALSE,NA,1
"30060","F","D",25,"cookie","V1","adult",246,"deaf","C_T",800,0.785714285714286,NA,"yes",TRUE,NA,1
"30060","F","D",26,"doll","V1","adult",246,"deaf","C_T",700,0.82183908045977,NA,"yes",TRUE,NA,1
"30060","F","D",27,"cup","V1","adult",246,"deaf","C_T",367,0.897590361445783,NA,"yes",FALSE,NA,1
"30060","F","D",28,"juice","V1","adult",246,"deaf","C_T",433,0.852941176470588,NA,"yes",FALSE,NA,1
"30060","F","D",29,"ball","V1","adult",246,"deaf","C_T",300,0.792682926829268,NA,"yes",FALSE,NA,1
"30060","F","D",30,"cookie","V1","adult",246,"deaf","C_T",633,0.879310344827586,NA,"yes",TRUE,NA,1
"30060","F","D",32,"cookie","V1","adult",246,"deaf","C_T",500,0.915730337078652,NA,"yes",FALSE,NA,1
"30060","F","D",33,"ball","V1","adult",246,"deaf","C_T",167,0.971910112359551,NA,"yes",FALSE,NA,1
"30060","F","D",34,"shoe","V1","adult",246,"deaf","C_T",433,0.798701298701299,NA,"yes",FALSE,NA,1
"30060","F","D",35,"teddy","V1","adult",246,"deaf","C_T",733,0.775862068965517,NA,"yes",TRUE,NA,1
"30060","F","D",36,"sock","V1","adult",246,"deaf","C_T",300,0.879746835443038,NA,"yes",FALSE,NA,1
"30060","F","D",37,"kitty","V1","adult",246,"deaf","C_D",433,0.890804597701149,NA,"yes",FALSE,NA,0
"30060","F","D",38,"shoe","V1","adult",246,"deaf","C_T",233,0.906666666666667,NA,"yes",FALSE,NA,1
"30060","F","D",39,"juice","V1","adult",246,"deaf","C_T",500,0.763157894736842,NA,"yes",FALSE,NA,1
"30036","M","D",3,"car","V1","child",42,"deaf","C_T",1000,0.735294117647059,75,"yes",TRUE,"OK",1
"30036","M","D",4,"ball","V1","child",42,"deaf","C_T",1967,0.668539325842697,75,"yes",TRUE,"OK",1
"30036","M","D",5,"teddy","V1","child",42,"deaf","C_T",1633,0.724719101123595,75,"yes",TRUE,"OK",1
"30036","M","D",6,"shoe","V1","child",42,"deaf","C_T",767,0.852941176470588,75,"yes",TRUE,"OK",1
"30036","M","D",7,"birdy","V1","child",42,"deaf","C_T",900,0.5625,75,"yes",TRUE,"OK",1
"30036","M","D",8,"book","V1","child",42,"deaf","C_D",700,0.547058823529412,75,"yes",TRUE,"OK",0
"30036","M","D",9,"kitty","V1","child",42,"deaf","C_T",700,0.611764705882353,75,"yes",TRUE,"OK",1
"30036","M","D",11,"book","V1","child",42,"deaf","C_T",1433,0.64367816091954,75,"yes",TRUE,"OK",1
"30036","M","D",12,"kitty","V1","child",42,"deaf","C_D",567,0.740963855421687,75,"yes",FALSE,"OK",0
"30036","M","D",13,"teddy","V1","child",42,"deaf","C_T",333,0.870588235294118,75,"yes",FALSE,"OK",1
"30036","M","D",14,"ball","V1","child",42,"deaf","C_T",1800,0.696629213483146,75,"yes",TRUE,"OK",1
"30036","M","D",17,"car","V1","child",42,"deaf","C_T",567,0.552631578947368,75,"yes",FALSE,"OK",1
"30013","M","D",2,"doll","V2","child",31,"deaf","C_T",2800,0.528089887640449,81,"yes",FALSE,"OK",1
"30013","M","D",3,"car","V2","child",31,"deaf","C_T",2300,0.612359550561798,81,"yes",TRUE,"OK",1
"30013","M","D",7,"book","V2","child",31,"deaf","C_T",2867,0.522222222222222,81,"yes",FALSE,"OK",1
"30013","M","D",12,"kitty","V2","child",31,"deaf","C_T",1200,0.598837209302326,81,"yes",TRUE,"OK",1
"30013","M","D",13,"teddy","V2","child",31,"deaf","C_T",2167,0.544943820224719,81,"yes",TRUE,"OK",1
"30013","M","D",16,"doll","V2","child",31,"deaf","no_shift",NA,0.5,81,"yes",NA,"OK",0
"30013","M","D",17,"car","V2","child",31,"deaf","C_T",2733,0.539325842696629,81,"yes",FALSE,"OK",1
"30013","M","D",21,"book","V2","child",31,"deaf","C_T",NA,0.5,81,"yes",NA,"OK",1
"30013","M","D",23,"teddy","V2","child",31,"deaf","C_T",900,0.539772727272727,81,"yes",TRUE,"OK",1
"30013","M","D",26,"shoe","V2","child",31,"deaf","C_T",2467,0.574712643678161,81,"yes",TRUE,"OK",1
"30013","M","D",27,"doll","V2","child",31,"deaf","C_T",2633,0.561111111111111,81,"yes",FALSE,"OK",1
"30013","M","A",31,"birdy","V2","child",31,"deaf","off_signer",1100,0.602272727272727,81,"yes",TRUE,"OK",0
"30013","M","D",32,"book","V2","child",31,"deaf","C_T",1167,0.581395348837209,81,"yes",TRUE,"OK",1
"30013","M","D",34,"car","V2","child",31,"deaf","C_T",1433,0.620689655172414,81,"yes",TRUE,"OK",1
"30013","M","D",36,"ball","V2","child",31,"deaf","C_T",1000,0.73125,81,"yes",TRUE,"OK",1
"30017","F","D",2,"doll","V2","child",35,"deaf","C_T",933,0.544943820224719,73,"yes",TRUE,"OK",1
"30017","F","D",3,"car","V2","child",35,"deaf","C_T",900,0.715909090909091,73,"yes",TRUE,"OK",1
"30017","F","D",4,"ball","V2","child",35,"deaf","C_T",1033,0.666666666666667,73,"yes",TRUE,"OK",1
"30017","F","D",5,"teddy","V2","child",35,"deaf","C_T",1267,0.713483146067416,73,"yes",TRUE,"OK",1
"30017","F","D",6,"birdy","V2","child",35,"deaf","C_T",1133,0.609756097560976,73,"yes",TRUE,"OK",1
"30017","F","D",7,"book","V2","child",35,"deaf","C_T",1300,0.651685393258427,73,"yes",TRUE,"OK",1
"30017","F","D",8,"kitty","V2","child",35,"deaf","C_D",933,0.528409090909091,73,"yes",TRUE,"OK",0
"30017","F","D",9,"shoe","V2","child",35,"deaf","C_T",1733,0.662921348314607,73,"yes",TRUE,"OK",1
"30017","F","D",11,"book","V2","child",35,"deaf","C_T",1033,0.727272727272727,73,"yes",TRUE,"OK",1
"30017","F","D",12,"kitty","V2","child",35,"deaf","C_T",1600,0.713483146067416,73,"yes",TRUE,"OK",1
"30017","F","D",13,"teddy","V2","child",35,"deaf","C_T",767,0.585227272727273,73,"yes",TRUE,"OK",1
"30017","F","D",14,"ball","V2","child",35,"deaf","C_D",100,0.344827586206897,73,"yes",FALSE,"OK",0
"30017","F","D",15,"birdy","V2","child",35,"deaf","C_D",833,0.396551724137931,73,"yes",TRUE,"OK",0
"30017","F","D",16,"doll","V2","child",35,"deaf","C_T",1333,0.607142857142857,73,"yes",TRUE,"OK",1
"30017","F","D",17,"car","V2","child",35,"deaf","C_T",900,0.719101123595506,73,"yes",TRUE,"OK",1
"30017","F","D",23,"teddy","V2","child",35,"deaf","C_T",833,0.511494252873563,73,"yes",TRUE,"OK",1
"30017","F","D",24,"car","V2","child",35,"deaf","C_D",2167,0.373563218390805,73,"yes",TRUE,"OK",0
"30017","F","D",26,"shoe","V2","child",35,"deaf","C_D",1900,0.320224719101124,73,"yes",TRUE,"OK",0
"30017","F","D",27,"doll","V2","child",35,"deaf","C_T",1900,0.676136363636364,73,"yes",TRUE,"OK",1
"30017","F","A",29,"kitty","V2","child",35,"deaf","off_signer",900,0.398876404494382,73,"yes",TRUE,"OK",0
"30017","F","D",30,"teddy","V2","child",35,"deaf","C_D",1700,0.3125,73,"yes",TRUE,"OK",0
"30017","F","D",31,"birdy","V2","child",35,"deaf","C_T",2200,0.589285714285714,73,"yes",TRUE,"OK",1
"30017","F","D",33,"shoe","V2","child",35,"deaf","C_T",1033,0.724719101123595,73,"yes",TRUE,"OK",1
"30025","F","D",3,"car","V2","child",26,"hearing","C_T",2100,0.596590909090909,56,"yes",TRUE,"OK",1
"30025","F","D",4,"ball","V2","child",26,"hearing","C_D",167,0.415730337078652,56,"yes",FALSE,"OK",0
"30025","F","A",5,"teddy","V2","child",26,"hearing","off_signer",NA,0.210227272727273,56,"yes",NA,"OK",0
"30025","F","D",7,"book","V2","child",26,"hearing","C_T",1367,0.625,56,"yes",TRUE,"OK",1
"30025","F","D",8,"kitty","V2","child",26,"hearing","C_T",2867,0.522222222222222,56,"yes",FALSE,"OK",1
"30025","F","D",11,"book","V2","child",26,"hearing","C_T",NA,0.5,56,"yes",NA,"OK",1
"30025","F","D",12,"kitty","V2","child",26,"hearing","C_T",1800,0.556179775280899,56,"yes",TRUE,"OK",1
"30025","F","D",14,"ball","V2","child",26,"hearing","C_T",400,0.642857142857143,56,"yes",FALSE,"OK",1
"30025","F","D",15,"birdy","V2","child",26,"hearing","C_T",1200,0.606741573033708,56,"yes",TRUE,"OK",1
"30025","F","A",17,"car","V2","child",26,"hearing","off_signer",367,0.556818181818182,56,"yes",FALSE,"OK",0
"30025","F","D",23,"teddy","V2","child",26,"hearing","C_T",600,0.601123595505618,56,"yes",TRUE,"OK",1
"30025","F","D",24,"car","V2","child",26,"hearing","C_D",2633,0.438888888888889,56,"yes",FALSE,"OK",0
"30025","F","D",25,"kitty","V2","child",26,"hearing","C_T",1300,0.595505617977528,56,"yes",TRUE,"OK",1
"30025","F","D",26,"shoe","V2","child",26,"hearing","C_T",1000,0.707865168539326,56,"yes",TRUE,"OK",1
"30031","M","D",2,"doll","V2","child",23,"deaf","C_T",1300,0.653409090909091,62,"yes",TRUE,"OK",1
"30031","M","D",3,"car","V2","child",23,"deaf","C_T",1200,0.738636363636364,62,"yes",TRUE,"OK",1
"30031","M","D",4,"ball","V2","child",23,"deaf","C_T",1633,0.623595505617977,62,"yes",TRUE,"OK",1
"30031","M","D",5,"teddy","V2","child",23,"deaf","C_D",2767,0.471590909090909,62,"yes",FALSE,"OK",0
"30031","M","D",6,"birdy","V2","child",23,"deaf","C_T",600,0.761363636363636,62,"yes",TRUE,"OK",1
"30031","M","D",7,"book","V2","child",23,"deaf","C_T",2000,0.666666666666667,62,"yes",TRUE,"OK",1
"30031","M","D",8,"kitty","V2","child",23,"deaf","C_D",767,0.438202247191011,62,"yes",TRUE,"OK",0
"30031","M","D",9,"shoe","V2","child",23,"deaf","C_T",1600,0.696629213483146,62,"yes",TRUE,"OK",1
"30031","M","D",11,"book","V2","child",23,"deaf","C_T",1467,0.640449438202247,62,"yes",TRUE,"OK",1
"30031","M","D",13,"teddy","V2","child",23,"deaf","C_T",1100,0.586206896551724,62,"yes",TRUE,"OK",1
"30031","M","A",14,"ball","V2","child",23,"deaf","off_signer",167,0.552325581395349,62,"yes",FALSE,"OK",0
"30031","M","D",16,"doll","V2","child",23,"deaf","C_T",1500,0.75,62,"yes",TRUE,"OK",1
"30031","M","D",17,"car","V2","child",23,"deaf","C_T",1833,0.694444444444444,62,"yes",TRUE,"OK",1
"30031","M","D",18,"shoe","V2","child",23,"deaf","C_D",2833,0.472222222222222,62,"yes",FALSE,"OK",0
"30031","M","D",20,"birdy","V2","child",23,"deaf","C_T",1367,0.772222222222222,62,"yes",TRUE,"OK",1
"30031","M","D",21,"book","V2","child",23,"deaf","C_T",1200,0.627118644067797,62,"yes",TRUE,"OK",1
"30031","M","D",22,"ball","V2","child",23,"deaf","C_T",2600,0.561797752808989,62,"yes",FALSE,"OK",1
"30031","M","A",23,"teddy","V2","child",23,"deaf","off_signer",433,0.460674157303371,62,"yes",FALSE,"OK",0
"30031","M","D",24,"car","V2","child",23,"deaf","C_T",633,0.556818181818182,62,"yes",TRUE,"OK",1
"30049","F","D",2,"doll","V2","child",33,"deaf","C_T",1600,0.733333333333333,69,"yes",TRUE,"OK",1
"30049","F","D",3,"car","V2","child",33,"deaf","C_T",1533,0.649425287356322,69,"yes",TRUE,"OK",1
"30049","F","D",4,"ball","V2","child",33,"deaf","C_D",633,0.56547619047619,69,"yes",TRUE,"OK",0
"30049","F","D",7,"book","V2","child",33,"deaf","C_T",1400,0.766666666666667,69,"yes",TRUE,"OK",1
"30049","F","D",9,"shoe","V2","child",33,"deaf","C_T",1633,0.674418604651163,69,"yes",TRUE,"OK",1
"30049","F","A",11,"book","V2","child",33,"deaf","off_signer",0,0.555555555555556,69,"yes",FALSE,"OK",0
"30049","F","D",12,"kitty","V2","child",33,"deaf","C_T",1200,0.797752808988764,69,"yes",TRUE,"OK",1
"30049","F","D",13,"teddy","V2","child",33,"deaf","C_T",1033,0.723529411764706,69,"yes",TRUE,"OK",1
"30049","F","D",14,"ball","V2","child",33,"deaf","C_T",2033,0.661111111111111,69,"yes",TRUE,"OK",1
"30049","F","D",15,"birdy","V2","child",33,"deaf","C_D",NA,0.5,69,"yes",NA,"OK",0
"30049","F","D",17,"car","V2","child",33,"deaf","C_T",1467,0.752808988764045,69,"yes",TRUE,"OK",1
"30049","F","D",18,"shoe","V2","child",33,"deaf","C_T",1067,0.68452380952381,69,"yes",TRUE,"OK",1
"30049","F","D",20,"birdy","V2","child",33,"deaf","C_T",767,0.772727272727273,69,"yes",TRUE,"OK",1
"30049","F","D",21,"book","V2","child",33,"deaf","C_T",1467,0.755555555555556,69,"yes",TRUE,"OK",1
"30049","F","D",22,"ball","V2","child",33,"deaf","C_T",1033,0.721590909090909,69,"yes",TRUE,"OK",1
"30049","F","D",23,"teddy","V2","child",33,"deaf","C_T",833,0.697674418604651,69,"yes",TRUE,"OK",1
"30049","F","D",27,"doll","V2","child",33,"deaf","C_T",1433,0.672413793103448,69,"yes",TRUE,"OK",1
"30049","F","D",29,"kitty","V2","child",33,"deaf","C_D",2600,0.438202247191011,69,"yes",FALSE,"OK",0
"30049","F","D",30,"teddy","V2","child",33,"deaf","C_T",1200,0.8,69,"yes",TRUE,"OK",1
"30049","F","D",31,"birdy","V2","child",33,"deaf","C_D",NA,0.5,69,"yes",NA,"OK",0
"30049","F","D",32,"book","V2","child",33,"deaf","C_T",1133,0.701149425287356,69,"yes",TRUE,"OK",1
"30050","F","D",2,"doll","V2","child",18,"hearing","C_D",1467,0.373493975903614,23,"yes",TRUE,"OK",0
"30050","F","D",3,"car","V2","child",18,"hearing","C_T",333,0.878048780487805,23,"yes",FALSE,"OK",1
"30050","F","D",4,"ball","V2","child",18,"hearing","C_D",467,0.616666666666667,23,"yes",FALSE,"OK",0
"30050","F","D",5,"teddy","V2","child",18,"hearing","C_T",467,0.885057471264368,23,"yes",FALSE,"OK",1
"30050","F","D",6,"birdy","V2","child",18,"hearing","C_T",NA,0.5,23,"yes",NA,"OK",1
"30050","F","D",9,"shoe","V2","child",18,"hearing","no_shift",NA,0.5,23,"yes",NA,"OK",0
"30050","F","A",11,"book","V2","child",18,"hearing","off_signer",NA,0.471910112359551,23,"yes",NA,"OK",0
"30050","F","D",14,"ball","V2","child",18,"hearing","C_T",1900,0.58125,23,"yes",TRUE,"OK",1
"30050","F","D",30,"teddy","V2","child",18,"hearing","C_T",133,0.398809523809524,23,"yes",FALSE,"OK",1
"30050","F","D",32,"book","V2","child",18,"hearing","C_T",NA,0.5,23,"yes",NA,"OK",1
"30051","M","D",2,"doll","V2","child",25,"deaf","C_T",1267,0.511363636363636,67,"yes",TRUE,"OK",1
"30051","M","A",4,"ball","V2","child",25,"deaf","off_signer",367,0.413793103448276,67,"yes",FALSE,"OK",0
"30051","M","D",5,"teddy","V2","child",25,"deaf","C_D",1667,0.563218390804598,67,"yes",TRUE,"OK",0
"30051","M","D",6,"birdy","V2","child",25,"deaf","C_D",233,0.571428571428571,67,"yes",FALSE,"OK",0
"30051","M","D",8,"kitty","V2","child",25,"deaf","C_T",1533,0.696629213483146,67,"yes",TRUE,"OK",1
"30051","M","D",9,"shoe","V2","child",25,"deaf","C_T",1633,0.622093023255814,67,"yes",TRUE,"OK",1
"30051","M","D",12,"kitty","V2","child",25,"deaf","C_D",2000,0.333333333333333,67,"yes",TRUE,"OK",0
"30051","M","A",13,"teddy","V2","child",25,"deaf","off_signer",NA,0.577777777777778,67,"yes",NA,"OK",0
"30051","M","A",15,"birdy","V2","child",25,"deaf","off_signer",0,0.335365853658537,67,"yes",FALSE,"OK",0
"30051","M","D",16,"doll","V2","child",25,"deaf","C_T",NA,0.5,67,"yes",NA,"OK",1
"30051","M","D",21,"book","V2","child",25,"deaf","C_D",567,0.741379310344828,67,"yes",FALSE,"OK",0
"30051","M","D",22,"ball","V2","child",25,"deaf","C_T",1367,0.617977528089888,67,"yes",TRUE,"OK",1
"30051","M","D",23,"teddy","V2","child",25,"deaf","C_D",1200,0.47093023255814,67,"yes",TRUE,"OK",0
"30051","M","D",29,"kitty","V2","child",25,"deaf","C_D",367,0.352941176470588,67,"yes",FALSE,"OK",0
"30051","M","A",30,"teddy","V2","child",25,"deaf","off_signer",NA,0.51685393258427,67,"yes",NA,"OK",0
"30051","M","D",31,"birdy","V2","child",25,"deaf","C_D",100,0.695402298850575,67,"yes",FALSE,"OK",0
"30051","M","A",35,"doll","V2","child",25,"deaf","off_signer",NA,0.854651162790698,67,"yes",NA,"OK",0
"30051","M","D",36,"ball","V2","child",25,"deaf","C_T",2300,0.616666666666667,67,"yes",TRUE,"OK",1
"30052","F","D",2,"doll","V2","child",28,"deaf","C_D",NA,0.5,72,"yes",NA,"OK",0
"30052","F","D",3,"car","V2","child",28,"deaf","C_T",1800,0.651162790697674,72,"yes",TRUE,"OK",1
"30052","F","D",4,"ball","V2","child",28,"deaf","C_T",1133,0.534090909090909,72,"yes",TRUE,"OK",1
"30052","F","D",5,"teddy","V2","child",28,"deaf","C_D",NA,0.5,72,"yes",NA,"OK",0
"30052","F","D",6,"birdy","V2","child",28,"deaf","C_T",967,0.558823529411765,72,"yes",TRUE,"OK",1
"30052","F","D",7,"book","V2","child",28,"deaf","C_T",1200,0.590909090909091,72,"yes",TRUE,"OK",1
"30052","F","D",8,"kitty","V2","child",28,"deaf","no_shift",NA,0.5,72,"yes",NA,"OK",0
"30052","F","D",9,"shoe","V2","child",28,"deaf","C_T",967,0.541666666666667,72,"yes",TRUE,"OK",1
"30052","F","D",11,"book","V2","child",28,"deaf","C_T",1167,0.535714285714286,72,"yes",TRUE,"OK",1
"30052","F","D",12,"kitty","V2","child",28,"deaf","C_T",1000,0.475609756097561,72,"yes",TRUE,"OK",1
"30052","F","D",13,"teddy","V2","child",28,"deaf","C_T",2967,0.505555555555556,72,"yes",FALSE,"OK",1
"30052","F","D",14,"ball","V2","child",28,"deaf","C_T",2067,0.647727272727273,72,"yes",TRUE,"OK",1
"30052","F","D",15,"birdy","V2","child",28,"deaf","C_T",900,0.779069767441861,72,"yes",TRUE,"OK",1
"30052","F","D",17,"car","V2","child",28,"deaf","C_T",1733,0.707865168539326,72,"yes",TRUE,"OK",1
"30052","F","D",18,"shoe","V2","child",28,"deaf","C_T",NA,0.5,72,"yes",NA,"OK",1
"30052","F","D",20,"birdy","V2","child",28,"deaf","C_D",1467,0.525316455696203,72,"yes",TRUE,"OK",0
"30052","F","D",27,"doll","V2","child",28,"deaf","C_D",967,0.587209302325581,72,"yes",TRUE,"OK",0
"30052","F","D",29,"kitty","V2","child",28,"deaf","C_T",1433,0.428571428571429,72,"yes",TRUE,"OK",1
"30052","F","D",31,"birdy","V2","child",28,"deaf","C_D",933,0.425287356321839,72,"yes",TRUE,"OK",0
"30052","F","D",35,"doll","V2","child",28,"deaf","C_T",1833,0.694444444444444,72,"yes",TRUE,"OK",1
"30066","F","D",2,"doll","V2","child",35,"hearing","C_T",300,0.655172413793103,78,"yes",FALSE,"OK",1
"30066","F","A",3,"car","V2","child",35,"hearing","off_signer",600,0.476744186046512,78,"yes",TRUE,"OK",0
"30066","F","D",4,"ball","V2","child",35,"hearing","C_T",1300,0.620689655172414,78,"yes",TRUE,"OK",1
"30066","F","D",5,"teddy","V2","child",35,"hearing","C_D",300,0.319767441860465,78,"yes",FALSE,"OK",0
"30066","F","D",6,"birdy","V2","child",35,"hearing","C_T",1500,0.659090909090909,78,"yes",TRUE,"OK",1
"30066","F","D",7,"book","V2","child",35,"hearing","C_D",633,0.704545454545455,78,"yes",TRUE,"OK",0
"30066","F","D",8,"kitty","V2","child",35,"hearing","C_T",1600,0.710227272727273,78,"yes",TRUE,"OK",1
"30066","F","D",9,"shoe","V2","child",35,"hearing","C_T",1233,0.761363636363636,78,"yes",TRUE,"OK",1
"30066","F","D",11,"book","V2","child",35,"hearing","C_T",1067,0.679775280898876,78,"yes",TRUE,"OK",1
"30066","F","A",12,"kitty","V2","child",35,"hearing","off_signer",633,0.635294117647059,78,"yes",TRUE,"OK",0
"30066","F","D",13,"teddy","V2","child",35,"hearing","C_D",867,0.758823529411765,78,"yes",TRUE,"OK",0
"30066","F","A",14,"ball","V2","child",35,"hearing","off_signer",267,0.511494252873563,78,"yes",FALSE,"OK",0
"30066","F","D",15,"birdy","V2","child",35,"hearing","C_T",1267,0.788888888888889,78,"yes",TRUE,"OK",1
"30066","F","D",16,"doll","V2","child",35,"hearing","C_T",1900,0.664705882352941,78,"yes",TRUE,"OK",1
"30066","F","D",17,"car","V2","child",35,"hearing","C_T",1000,0.420454545454545,78,"yes",TRUE,"OK",1
"30066","F","D",18,"shoe","V2","child",35,"hearing","C_D",2000,0.482758620689655,78,"yes",TRUE,"OK",0
"30066","F","D",20,"birdy","V2","child",35,"hearing","C_D",NA,0.5,78,"yes",NA,"OK",0
"30066","F","D",21,"book","V2","child",35,"hearing","C_T",NA,0.5,78,"yes",NA,"OK",1
"30066","F","A",22,"ball","V2","child",35,"hearing","off_signer",2867,0.844827586206897,78,"yes",FALSE,"OK",0
"30066","F","D",24,"car","V2","child",35,"hearing","C_D",833,0.494117647058824,78,"yes",TRUE,"OK",0
"30066","F","D",25,"kitty","V2","child",35,"hearing","C_T",1367,0.609195402298851,78,"yes",TRUE,"OK",1
"30066","F","A",26,"shoe","V2","child",35,"hearing","off_signer",NA,0.758426966292135,78,"yes",NA,"OK",0
"30066","F","D",27,"doll","V2","child",35,"hearing","C_T",2233,0.534090909090909,78,"yes",TRUE,"OK",1
"30066","F","A",29,"kitty","V2","child",35,"hearing","off_signer",NA,0.797752808988764,78,"yes",NA,"OK",0
"30066","F","A",30,"teddy","V2","child",35,"hearing","off_signer",NA,0.695945945945946,78,"yes",NA,"OK",0
"30066","F","D",31,"birdy","V2","child",35,"hearing","C_T",1100,0.814606741573034,78,"yes",TRUE,"OK",1
"30066","F","D",32,"book","V2","child",35,"hearing","C_T",1167,0.805555555555556,78,"yes",TRUE,"OK",1
"30066","F","D",33,"shoe","V2","child",35,"hearing","C_T",1800,0.696629213483146,78,"yes",TRUE,"OK",1
"30066","F","D",34,"car","V2","child",35,"hearing","C_T",1133,0.811111111111111,78,"yes",TRUE,"OK",1
"30066","F","D",35,"doll","V2","child",35,"hearing","C_T",1033,0.685393258426966,78,"yes",TRUE,"OK",1
"30066","F","A",36,"ball","V2","child",35,"hearing","off_signer",300,0.711764705882353,78,"yes",FALSE,"OK",0
"30068","F","D",2,"doll","V2","child",53,"hearing","C_T",933,0.726744186046512,82,"yes",TRUE,"OK",1
"30068","F","D",3,"car","V2","child",53,"hearing","C_D",2267,0.459770114942529,82,"yes",TRUE,"OK",0
"30068","F","D",6,"birdy","V2","child",53,"hearing","C_D",767,0.523809523809524,82,"yes",TRUE,"OK",0
"30068","F","A",7,"book","V2","child",53,"hearing","off_signer",233,0.735632183908046,82,"yes",FALSE,"OK",0
"30068","F","A",8,"kitty","V2","child",53,"hearing","off_signer",33,0.471264367816092,82,"yes",FALSE,"OK",0
"30068","F","D",9,"shoe","V2","child",53,"hearing","C_T",1433,0.758426966292135,82,"yes",TRUE,"OK",1
"30068","F","D",11,"book","V2","child",53,"hearing","C_T",1067,0.627906976744186,82,"yes",TRUE,"OK",1
"30068","F","D",12,"kitty","V2","child",53,"hearing","C_T",NA,0.5,82,"yes",NA,"OK",1
"30068","F","A",13,"teddy","V2","child",53,"hearing","off_signer",233,0.761627906976744,82,"yes",FALSE,"OK",0
"30068","F","D",14,"ball","V2","child",53,"hearing","C_T",1600,0.733333333333333,82,"yes",TRUE,"OK",1
"30068","F","A",17,"car","V2","child",53,"hearing","off_signer",233,0.793103448275862,82,"yes",FALSE,"OK",0
"30068","F","D",20,"birdy","V2","child",53,"hearing","C_D",700,0.789156626506024,82,"yes",TRUE,"OK",0
"30068","F","D",21,"book","V2","child",53,"hearing","C_T",1067,0.822222222222222,82,"yes",TRUE,"OK",1
"30068","F","D",22,"ball","V2","child",53,"hearing","C_T",1033,0.827777777777778,82,"yes",TRUE,"OK",1
"30068","F","D",23,"teddy","V2","child",53,"hearing","C_T",967,0.837078651685393,82,"yes",TRUE,"OK",1
"30068","F","D",24,"car","V2","child",53,"hearing","C_T",633,0.755813953488372,82,"yes",TRUE,"OK",1
"30068","F","A",25,"kitty","V2","child",53,"hearing","off_signer",167,0.775862068965517,82,"yes",FALSE,"OK",0
"30068","F","A",26,"shoe","V2","child",53,"hearing","off_signer",NA,0.703488372093023,82,"yes",NA,"OK",0
"30068","F","D",27,"doll","V2","child",53,"hearing","C_T",1000,0.747126436781609,82,"yes",TRUE,"OK",1
"30068","F","D",29,"kitty","V2","child",53,"hearing","C_T",1200,0.797752808988764,82,"yes",TRUE,"OK",1
"30068","F","D",30,"teddy","V2","child",53,"hearing","C_T",1033,0.827777777777778,82,"yes",TRUE,"OK",1
"30068","F","D",32,"book","V2","child",53,"hearing","C_D",900,0.764367816091954,82,"yes",TRUE,"OK",0
"30068","F","D",33,"shoe","V2","child",53,"hearing","C_T",1933,0.677777777777778,82,"yes",TRUE,"OK",1
"30068","F","D",34,"car","V2","child",53,"hearing","C_T",1467,0.752808988764045,82,"yes",TRUE,"OK",1
"30068","F","D",35,"doll","V2","child",53,"hearing","C_T",800,0.770114942528736,82,"yes",TRUE,"OK",1
"30068","F","D",36,"ball","V2","child",53,"hearing","C_T",833,0.738636363636364,82,"yes",TRUE,"OK",1
"30069","M","D",2,"doll","V2","adult",295,"deaf","C_T",1500,0.681818181818182,NA,"yes",TRUE,NA,1
"30069","M","D",3,"car","V2","adult",295,"deaf","C_T",833,0.6,NA,"yes",TRUE,NA,1
"30069","M","D",4,"ball","V2","adult",295,"deaf","C_T",2500,0.583333333333333,NA,"yes",TRUE,NA,1
"30069","M","D",5,"teddy","V2","adult",295,"deaf","C_T",833,0.662921348314607,NA,"yes",TRUE,NA,1
"30069","M","D",6,"birdy","V2","adult",295,"deaf","C_D",333,0.460674157303371,NA,"yes",FALSE,NA,0
"30069","M","D",7,"book","V2","adult",295,"deaf","C_T",167,0.730337078651685,NA,"yes",FALSE,NA,1
"30069","M","D",8,"kitty","V2","adult",295,"deaf","C_T",733,0.679775280898876,NA,"yes",TRUE,NA,1
"30069","M","D",9,"shoe","V2","adult",295,"deaf","C_T",267,0.765432098765432,NA,"yes",FALSE,NA,1
"30069","M","D",11,"book","V2","adult",295,"deaf","no_shift",NA,0.5,NA,"yes",NA,NA,0
"30069","M","D",12,"kitty","V2","adult",295,"deaf","C_T",233,0.64367816091954,NA,"yes",FALSE,NA,1
"30069","M","D",13,"teddy","V2","adult",295,"deaf","C_T",267,0.635802469135803,NA,"yes",FALSE,NA,1
"30069","M","D",14,"ball","V2","adult",295,"deaf","C_T",1733,0.601351351351351,NA,"yes",TRUE,NA,1
"30069","M","D",15,"birdy","V2","adult",295,"deaf","C_T",233,0.607954545454545,NA,"yes",FALSE,NA,1
"30069","M","D",16,"doll","V2","adult",295,"deaf","C_T",633,0.668539325842697,NA,"yes",TRUE,NA,1
"30069","M","D",17,"car","V2","adult",295,"deaf","C_T",567,0.698529411764706,NA,"yes",FALSE,NA,1
"30069","M","D",18,"shoe","V2","adult",295,"deaf","C_T",867,0.670454545454545,NA,"yes",TRUE,NA,1
"30069","M","D",20,"birdy","V2","adult",295,"deaf","C_T",167,0.646067415730337,NA,"yes",FALSE,NA,1
"30069","M","D",21,"book","V2","adult",295,"deaf","C_T",100,0.659090909090909,NA,"yes",FALSE,NA,1
"30069","M","D",22,"ball","V2","adult",295,"deaf","C_T",467,0.648148148148148,NA,"yes",FALSE,NA,1
"30069","M","D",23,"teddy","V2","adult",295,"deaf","C_T",133,0.629213483146067,NA,"yes",FALSE,NA,1
"30069","M","D",24,"car","V2","adult",295,"deaf","C_T",267,0.646067415730337,NA,"yes",FALSE,NA,1
"30069","M","A",25,"kitty","V2","adult",295,"deaf","off_signer",0,0.613095238095238,NA,"yes",FALSE,NA,0
"30069","M","D",26,"shoe","V2","adult",295,"deaf","C_T",100,0.623595505617977,NA,"yes",FALSE,NA,1
"30069","M","D",27,"doll","V2","adult",295,"deaf","C_T",233,0.710526315789474,NA,"yes",FALSE,NA,1
"30069","M","D",29,"kitty","V2","adult",295,"deaf","C_T",33,0.685393258426966,NA,"yes",FALSE,NA,1
"30069","M","D",30,"teddy","V2","adult",295,"deaf","C_T",200,0.674157303370786,NA,"yes",FALSE,NA,1
"30069","M","D",31,"birdy","V2","adult",295,"deaf","C_T",200,0.710227272727273,NA,"yes",FALSE,NA,1
"30069","M","A",32,"book","V2","adult",295,"deaf","off_signer",NA,0.611111111111111,NA,"yes",NA,NA,0
"30069","M","D",33,"shoe","V2","adult",295,"deaf","C_T",433,0.738636363636364,NA,"yes",FALSE,NA,1
"30069","M","A",34,"car","V2","adult",295,"deaf","off_signer",0,0.642045454545455,NA,"yes",FALSE,NA,0
"30069","M","D",35,"doll","V2","adult",295,"deaf","C_T",200,0.617977528089888,NA,"yes",FALSE,NA,1
"30069","M","D",36,"ball","V2","adult",295,"deaf","C_T",67,0.578651685393258,NA,"yes",FALSE,NA,1
"30074","M","D",2,"doll","V2","adult",324,"deaf","C_T",1900,0.561797752808989,NA,"yes",TRUE,NA,1
"30074","M","D",3,"car","V2","adult",324,"deaf","C_T",1467,0.72289156626506,NA,"yes",TRUE,NA,1
"30074","M","D",4,"ball","V2","adult",324,"deaf","C_T",1067,0.573863636363636,NA,"yes",TRUE,NA,1
"30074","M","D",5,"teddy","V2","adult",324,"deaf","C_T",433,0.775280898876405,NA,"yes",FALSE,NA,1
"30074","M","D",6,"birdy","V2","adult",324,"deaf","C_T",667,0.738636363636364,NA,"yes",TRUE,NA,1
"30074","M","D",7,"book","V2","adult",324,"deaf","C_D",200,0.865168539325843,NA,"yes",FALSE,NA,0
"30074","M","D",8,"kitty","V2","adult",324,"deaf","C_T",667,0.775862068965517,NA,"yes",TRUE,NA,1
"30074","M","D",9,"shoe","V2","adult",324,"deaf","C_T",700,0.858974358974359,NA,"yes",TRUE,NA,1
"30074","M","D",11,"book","V2","adult",324,"deaf","C_T",967,0.837078651685393,NA,"yes",TRUE,NA,1
"30074","M","D",12,"kitty","V2","adult",324,"deaf","C_T",267,0.949367088607595,NA,"yes",FALSE,NA,1
"30074","M","D",13,"teddy","V2","adult",324,"deaf","C_T",333,0.93125,NA,"yes",FALSE,NA,1
"30074","M","D",14,"ball","V2","adult",324,"deaf","C_T",967,0.838888888888889,NA,"yes",TRUE,NA,1
"30074","M","D",15,"birdy","V2","adult",324,"deaf","C_T",67,0.988888888888889,NA,"yes",FALSE,NA,1
"30074","M","D",16,"doll","V2","adult",324,"deaf","C_T",800,0.866666666666667,NA,"yes",TRUE,NA,1
"30074","M","D",17,"car","V2","adult",324,"deaf","C_T",467,0.817647058823529,NA,"yes",FALSE,NA,1
"30074","M","D",18,"shoe","V2","adult",324,"deaf","C_T",400,0.933333333333333,NA,"yes",FALSE,NA,1
"30074","M","D",20,"birdy","V2","adult",324,"deaf","C_T",33,0.99438202247191,NA,"yes",FALSE,NA,1
"30074","M","D",21,"book","V2","adult",324,"deaf","C_T",767,0.870786516853933,NA,"yes",TRUE,NA,1
"30074","M","D",22,"ball","V2","adult",324,"deaf","C_T",400,0.932584269662921,NA,"yes",FALSE,NA,1
"30074","M","A",23,"teddy","V2","adult",324,"deaf","off_signer",NA,0.943820224719101,NA,"yes",NA,NA,0
"30074","M","D",24,"car","V2","adult",324,"deaf","C_T",367,0.938202247191011,NA,"yes",FALSE,NA,1
"30074","M","D",25,"kitty","V2","adult",324,"deaf","C_T",167,0.971910112359551,NA,"yes",FALSE,NA,1
"30074","M","D",26,"shoe","V2","adult",324,"deaf","C_T",400,0.933333333333333,NA,"yes",FALSE,NA,1
"30074","M","A",27,"doll","V2","adult",324,"deaf","off_signer",NA,1,NA,"yes",NA,NA,0
"30074","M","D",29,"kitty","V2","adult",324,"deaf","C_T",233,0.961111111111111,NA,"yes",FALSE,NA,1
"30074","M","D",30,"teddy","V2","adult",324,"deaf","C_T",533,0.911111111111111,NA,"yes",FALSE,NA,1
"30074","M","D",31,"birdy","V2","adult",324,"deaf","C_T",367,0.816091954022989,NA,"yes",FALSE,NA,1
"30074","M","D",32,"book","V2","adult",324,"deaf","C_T",500,0.909638554216867,NA,"yes",FALSE,NA,1
"30074","M","D",33,"shoe","V2","adult",324,"deaf","C_T",133,0.89375,NA,"yes",FALSE,NA,1
"30074","M","D",34,"car","V2","adult",324,"deaf","C_T",33,0.891566265060241,NA,"yes",FALSE,NA,1
"30074","M","D",35,"doll","V2","adult",324,"deaf","C_T",100,0.983333333333333,NA,"yes",FALSE,NA,1
"30074","M","A",36,"ball","V2","adult",324,"deaf","off_signer",NA,1,NA,"yes",NA,NA,0
"30075","F","D",2,"doll","V2","adult",358,"deaf","C_T",1500,0.730337078651685,NA,"yes",TRUE,NA,1
"30075","F","D",3,"car","V2","adult",358,"deaf","C_T",733,0.607954545454545,NA,"yes",TRUE,NA,1
"30075","F","D",4,"ball","V2","adult",358,"deaf","C_T",300,0.595505617977528,NA,"yes",FALSE,NA,1
"30075","F","D",5,"teddy","V2","adult",358,"deaf","C_T",500,0.726190476190476,NA,"yes",FALSE,NA,1
"30075","F","D",6,"birdy","V2","adult",358,"deaf","C_T",667,0.607142857142857,NA,"yes",TRUE,NA,1
"30075","F","D",7,"book","V2","adult",358,"deaf","C_T",1433,0.747058823529412,NA,"yes",TRUE,NA,1
"30075","F","D",8,"kitty","V2","adult",358,"deaf","C_T",1700,0.707865168539326,NA,"yes",TRUE,NA,1
"30075","F","D",9,"shoe","V2","adult",358,"deaf","C_T",733,0.876404494382023,NA,"yes",TRUE,NA,1
"30075","F","D",11,"book","V2","adult",358,"deaf","C_T",1633,0.711764705882353,NA,"yes",TRUE,NA,1
"30075","F","D",12,"kitty","V2","adult",358,"deaf","C_T",433,0.81875,NA,"yes",FALSE,NA,1
"30075","F","D",13,"teddy","V2","adult",358,"deaf","C_T",667,0.883720930232558,NA,"yes",TRUE,NA,1
"30075","F","D",14,"ball","V2","adult",358,"deaf","C_T",1267,0.779069767441861,NA,"yes",TRUE,NA,1
"30075","F","D",15,"birdy","V2","adult",358,"deaf","C_T",100,0.78735632183908,NA,"yes",FALSE,NA,1
"30075","F","D",16,"doll","V2","adult",358,"deaf","C_T",567,0.645348837209302,NA,"yes",FALSE,NA,1
"30075","F","D",17,"car","V2","adult",358,"deaf","C_T",333,0.819767441860465,NA,"yes",FALSE,NA,1
"30075","F","D",18,"shoe","V2","adult",358,"deaf","C_T",633,0.890804597701149,NA,"yes",TRUE,NA,1
"30075","F","D",20,"birdy","V2","adult",358,"deaf","C_T",200,0.682352941176471,NA,"yes",FALSE,NA,1
"30075","F","D",21,"book","V2","adult",358,"deaf","C_T",233,0.8125,NA,"yes",FALSE,NA,1
"30075","F","D",22,"ball","V2","adult",358,"deaf","C_T",533,0.911111111111111,NA,"yes",FALSE,NA,1
"30075","F","D",23,"teddy","V2","adult",358,"deaf","C_T",633,0.890804597701149,NA,"yes",TRUE,NA,1
"30075","F","D",24,"car","V2","adult",358,"deaf","C_T",200,0.78735632183908,NA,"yes",FALSE,NA,1
"30075","F","A",25,"kitty","V2","adult",358,"deaf","off_signer",NA,0.767441860465116,NA,"yes",NA,NA,0
"30075","F","A",26,"shoe","V2","adult",358,"deaf","off_signer",0,0.847560975609756,NA,"yes",FALSE,NA,0
"30075","F","D",27,"doll","V2","adult",358,"deaf","C_T",300,0.808988764044944,NA,"yes",FALSE,NA,1
"30075","F","D",29,"kitty","V2","adult",358,"deaf","C_T",67,0.805882352941176,NA,"yes",FALSE,NA,1
"30075","F","D",30,"teddy","V2","adult",358,"deaf","C_T",33,0.994444444444444,NA,"yes",FALSE,NA,1
"30075","F","D",31,"birdy","V2","adult",358,"deaf","C_T",67,0.791666666666667,NA,"yes",FALSE,NA,1
"30075","F","A",32,"book","V2","adult",358,"deaf","off_signer",NA,0.795454545454545,NA,"yes",NA,NA,0
"30075","F","D",33,"shoe","V2","adult",358,"deaf","C_T",167,0.886075949367089,NA,"yes",FALSE,NA,1
"30075","F","D",34,"car","V2","adult",358,"deaf","C_T",167,0.779761904761905,NA,"yes",FALSE,NA,1
"30075","F","D",35,"doll","V2","adult",358,"deaf","C_T",667,0.808988764044944,NA,"yes",TRUE,NA,1
"30075","F","A",36,"ball","V2","adult",358,"deaf","off_signer",NA,0.9,NA,"yes",NA,NA,0
"30078","F","D",2,"doll","V2","adult",324,"deaf","C_T",733,0.601123595505618,NA,"yes",TRUE,NA,1
"30078","F","D",3,"car","V2","adult",324,"deaf","C_T",1100,0.629213483146067,NA,"yes",TRUE,NA,1
"30078","F","D",4,"ball","V2","adult",324,"deaf","C_T",1100,0.609195402298851,NA,"yes",TRUE,NA,1
"30078","F","D",5,"teddy","V2","adult",324,"deaf","C_T",767,0.564705882352941,NA,"yes",TRUE,NA,1
"30078","F","D",6,"birdy","V2","adult",324,"deaf","C_T",867,0.758620689655172,NA,"yes",TRUE,NA,1
"30078","F","D",7,"book","V2","adult",324,"deaf","C_T",667,0.682352941176471,NA,"yes",TRUE,NA,1
"30078","F","D",8,"kitty","V2","adult",324,"deaf","C_T",800,0.583333333333333,NA,"yes",TRUE,NA,1
"30078","F","D",9,"shoe","V2","adult",324,"deaf","C_T",767,0.647058823529412,NA,"yes",TRUE,NA,1
"30078","F","D",11,"book","V2","adult",324,"deaf","C_T",667,0.556179775280899,NA,"yes",TRUE,NA,1
"30078","F","D",12,"kitty","V2","adult",324,"deaf","C_T",500,0.601190476190476,NA,"yes",FALSE,NA,1
"30078","F","D",13,"teddy","V2","adult",324,"deaf","C_T",567,0.623529411764706,NA,"yes",FALSE,NA,1
"30078","F","D",14,"ball","V2","adult",324,"deaf","C_T",667,0.590909090909091,NA,"yes",TRUE,NA,1
"30078","F","D",15,"birdy","V2","adult",324,"deaf","C_T",767,0.656976744186046,NA,"yes",TRUE,NA,1
"30078","F","D",16,"doll","V2","adult",324,"deaf","C_T",467,0.593023255813954,NA,"yes",FALSE,NA,1
"30078","F","D",17,"car","V2","adult",324,"deaf","C_T",567,0.571428571428571,NA,"yes",FALSE,NA,1
"30078","F","D",18,"shoe","V2","adult",324,"deaf","C_T",567,0.55952380952381,NA,"yes",FALSE,NA,1
"30078","F","D",20,"birdy","V2","adult",324,"deaf","C_T",467,0.632530120481928,NA,"yes",FALSE,NA,1
"30078","F","D",21,"book","V2","adult",324,"deaf","C_T",367,0.6875,NA,"yes",FALSE,NA,1
"30078","F","D",22,"ball","V2","adult",324,"deaf","C_T",1067,0.698863636363636,NA,"yes",TRUE,NA,1
"30078","F","D",23,"teddy","V2","adult",324,"deaf","C_T",333,0.662921348314607,NA,"yes",FALSE,NA,1
"30078","F","D",24,"car","V2","adult",324,"deaf","C_T",733,0.645833333333333,NA,"yes",TRUE,NA,1
"30078","F","D",25,"kitty","V2","adult",324,"deaf","C_T",2367,0.563953488372093,NA,"yes",TRUE,NA,1
"30078","F","D",26,"shoe","V2","adult",324,"deaf","C_T",500,0.570588235294118,NA,"yes",FALSE,NA,1
"30078","F","D",27,"doll","V2","adult",324,"deaf","C_T",1600,0.598765432098765,NA,"yes",TRUE,NA,1
"30078","F","D",29,"kitty","V2","adult",324,"deaf","C_T",433,0.589887640449438,NA,"yes",FALSE,NA,1
"30078","F","D",30,"teddy","V2","adult",324,"deaf","C_T",367,0.583333333333333,NA,"yes",FALSE,NA,1
"30078","F","D",31,"birdy","V2","adult",324,"deaf","C_T",433,0.570588235294118,NA,"yes",FALSE,NA,1
"30078","F","D",32,"book","V2","adult",324,"deaf","C_T",367,0.869047619047619,NA,"yes",FALSE,NA,1
"30078","F","D",33,"shoe","V2","adult",324,"deaf","C_T",533,0.581395348837209,NA,"yes",FALSE,NA,1
"30078","F","D",34,"car","V2","adult",324,"deaf","C_T",167,0.685393258426966,NA,"yes",FALSE,NA,1
