"Sub.Num","Sex","Response","Tr.Num","RT","Accuracy","signs_produced","age_code","age_peek_months","hearing_status_participant","trial_types"
"30004","F","D",2,1633,0.704545454545455,NA,"adult",349,"deaf","C_T"
"30004","F","D",3,1167,0.721590909090909,NA,"adult",349,"deaf","C_T"
"30004","F","D",4,700,0.764367816091954,NA,"adult",349,"deaf","C_T"
"30004","F","D",5,833,0.674698795180723,NA,"adult",349,"deaf","C_T"
"30004","F","D",6,967,0.697530864197531,NA,"adult",349,"deaf","C_T"
"30004","F","D",7,700,0.746987951807229,NA,"adult",349,"deaf","C_T"
"30004","F","D",8,233,0.705882352941177,NA,"adult",349,"deaf","C_T"
"30004","F","D",9,933,0.636904761904762,NA,"adult",349,"deaf","C_T"
"30004","F","D",10,1800,0.682352941176471,NA,"adult",349,"deaf","C_T"
"30004","F","D",11,967,0.837078651685393,NA,"adult",349,"deaf","C_T"
"30004","F","D",12,1033,0.747058823529412,NA,"adult",349,"deaf","C_T"
"30004","F","D",13,933,0.732142857142857,NA,"adult",349,"deaf","C_T"
"30004","F","D",14,933,0.752941176470588,NA,"adult",349,"deaf","C_T"
"30004","F","D",15,1933,0.604651162790698,NA,"adult",349,"deaf","C_T"
"30004","F","D",16,2367,0.601123595505618,NA,"adult",349,"deaf","C_T"
"30004","F","D",17,NA,0.5,NA,"adult",349,"deaf","C_T"
"30004","F","D",18,NA,0.5,NA,"adult",349,"deaf","no_shift"
"30004","F","D",19,567,0.788235294117647,NA,"adult",349,"deaf","C_T"
"30004","F","D",21,1133,0.802325581395349,NA,"adult",349,"deaf","C_T"
"30004","F","D",22,1833,0.580459770114943,NA,"adult",349,"deaf","C_T"
"30004","F","D",23,767,0.666666666666667,NA,"adult",349,"deaf","C_T"
"30004","F","D",24,1200,0.723529411764706,NA,"adult",349,"deaf","C_T"
"30004","F","D",25,1000,0.726744186046512,NA,"adult",349,"deaf","C_T"
"30004","F","D",26,1233,0.752873563218391,NA,"adult",349,"deaf","C_T"
"30004","F","D",27,800,0.602409638554217,NA,"adult",349,"deaf","C_T"
"30004","F","D",28,1000,0.831460674157303,NA,"adult",349,"deaf","C_T"
"30004","F","D",29,1867,0.685393258426966,NA,"adult",349,"deaf","C_T"
"30004","F","D",30,1267,0.738636363636364,NA,"adult",349,"deaf","C_T"
"30004","F","D",31,1000,0.831460674157303,NA,"adult",349,"deaf","C_T"
"30004","F","D",32,1067,0.820224719101124,NA,"adult",349,"deaf","C_T"
"30004","F","D",34,1133,0.72289156626506,NA,"adult",349,"deaf","C_T"
"30004","F","D",35,1067,0.8125,NA,"adult",349,"deaf","C_T"
"30004","F","D",36,733,0.775862068965517,NA,"adult",349,"deaf","C_T"
"30004","F","D",37,NA,0.5,NA,"adult",349,"deaf","C_T"
"30004","F","D",38,800,0.554878048780488,NA,"adult",349,"deaf","C_D"
"30004","F","D",39,1433,0.758426966292135,NA,"adult",349,"deaf","C_T"
"30004","F","D",40,867,0.850574712643678,NA,"adult",349,"deaf","C_T"
"30004","F","D",41,767,0.788235294117647,NA,"adult",349,"deaf","C_T"
"30004","F","D",42,700,0.841176470588235,NA,"adult",349,"deaf","C_T"
"30004","F","D",43,600,0.81875,NA,"adult",349,"deaf","C_T"
"30005","M","D",2,767,0.810344827586207,NA,"adult",575,"deaf","C_D"
"30005","M","D",3,633,0.893258426966292,NA,"adult",575,"deaf","C_T"
"30005","M","D",4,767,0.819767441860465,NA,"adult",575,"deaf","C_D"
"30005","M","D",5,633,0.893258426966292,NA,"adult",575,"deaf","C_T"
"30005","M","D",6,633,0.893258426966292,NA,"adult",575,"deaf","C_T"
"30005","M","D",7,533,0.911111111111111,NA,"adult",575,"deaf","C_T"
"30005","M","D",8,633,0.893258426966292,NA,"adult",575,"deaf","C_T"
"30005","M","D",9,700,0.882022471910112,NA,"adult",575,"deaf","C_T"
"30005","M","D",10,400,0.932584269662921,NA,"adult",575,"deaf","C_T"
"30005","M","D",11,733,0.875,NA,"adult",575,"deaf","C_T"
"30005","M","D",12,700,0.882022471910112,NA,"adult",575,"deaf","C_T"
"30005","M","D",13,567,0.904494382022472,NA,"adult",575,"deaf","C_T"
"30005","M","D",14,600,0.898876404494382,NA,"adult",575,"deaf","C_T"
"30005","M","D",15,800,0.863636363636364,NA,"adult",575,"deaf","C_T"
"30005","M","D",16,600,0.898876404494382,NA,"adult",575,"deaf","C_T"
"30005","M","D",17,667,0.887640449438202,NA,"adult",575,"deaf","C_T"
"30005","M","D",19,633,0.870588235294118,NA,"adult",575,"deaf","C_T"
"30005","M","D",20,667,0.887640449438202,NA,"adult",575,"deaf","C_T"
"30005","M","D",21,1100,0.814606741573034,NA,"adult",575,"deaf","C_T"
"30005","M","D",22,800,0.865168539325843,NA,"adult",575,"deaf","C_T"
"30005","M","D",23,700,0.882022471910112,NA,"adult",575,"deaf","C_T"
"30005","M","D",24,967,0.761904761904762,NA,"adult",575,"deaf","C_T"
"30005","M","D",25,2233,0.614942528735632,NA,"adult",575,"deaf","C_T"
"30005","M","D",26,1100,0.814606741573034,NA,"adult",575,"deaf","C_T"
"30005","M","D",27,433,0.926966292134832,NA,"adult",575,"deaf","C_T"
"30005","M","D",28,333,0.942528735632184,NA,"adult",575,"deaf","C_T"
"30005","M","D",29,600,0.897727272727273,NA,"adult",575,"deaf","C_T"
"30005","M","D",30,400,0.932584269662921,NA,"adult",575,"deaf","C_T"
"30005","M","D",32,667,0.882352941176471,NA,"adult",575,"deaf","C_T"
"30005","M","D",33,700,0.701149425287356,NA,"adult",575,"deaf","C_T"
"30005","M","D",34,867,0.845238095238095,NA,"adult",575,"deaf","C_T"
"30005","M","D",35,1133,0.808988764044944,NA,"adult",575,"deaf","C_T"
"30005","M","D",36,367,0.698795180722892,NA,"adult",575,"deaf","C_T"
"30005","M","D",37,533,0.850574712643678,NA,"adult",575,"deaf","C_D"
"30005","M","D",38,367,0.938202247191011,NA,"adult",575,"deaf","C_T"
"30005","M","D",39,700,0.75,NA,"adult",575,"deaf","C_T"
"30006","F","D",2,767,0.630681818181818,NA,"adult",575,"deaf","C_T"
"30006","F","D",3,867,0.722222222222222,NA,"adult",575,"deaf","C_T"
"30006","F","D",4,933,0.835294117647059,NA,"adult",575,"deaf","C_T"
"30006","F","D",5,2700,0.512048192771084,NA,"adult",575,"deaf","C_T"
"30006","F","D",6,1400,0.752941176470588,NA,"adult",575,"deaf","C_T"
"30006","F","D",7,1133,0.797619047619048,NA,"adult",575,"deaf","C_T"
"30006","F","D",8,433,0.922619047619048,NA,"adult",575,"deaf","C_T"
"30006","F","D",9,NA,0.5,NA,"adult",575,"deaf","C_T"
"30006","F","D",10,967,0.578313253012048,NA,"adult",575,"deaf","C_T"
"30006","F","D",11,1300,0.778409090909091,NA,"adult",575,"deaf","C_T"
"30006","F","D",12,2200,0.607142857142857,NA,"adult",575,"deaf","C_T"
"30006","F","D",13,767,0.870786516853933,NA,"adult",575,"deaf","C_T"
"30006","F","D",14,900,0.75974025974026,NA,"adult",575,"deaf","C_T"
"30006","F","D",15,400,0.686746987951807,NA,"adult",575,"deaf","C_T"
"30006","F","D",16,800,0.857142857142857,NA,"adult",575,"deaf","C_T"
"30006","F","D",17,2633,0.535294117647059,NA,"adult",575,"deaf","C_T"
"30006","F","D",19,1000,0.703703703703704,NA,"adult",575,"deaf","C_T"
"30006","F","D",20,NA,0.5,NA,"adult",575,"deaf","C_T"
"30006","F","D",21,1067,0.5,NA,"adult",575,"deaf","C_T"
"30006","F","D",22,800,0.688235294117647,NA,"adult",575,"deaf","C_T"
"30006","F","D",23,1367,0.553571428571429,NA,"adult",575,"deaf","C_T"
"30006","F","D",24,NA,0.5,NA,"adult",575,"deaf","no_shift"
"30006","F","D",25,1667,0.719101123595506,NA,"adult",575,"deaf","C_T"
"30006","F","D",26,1033,0.82183908045977,NA,"adult",575,"deaf","C_T"
"30006","F","D",27,1733,0.694117647058824,NA,"adult",575,"deaf","C_T"
"30006","F","D",28,NA,0.5,NA,"adult",575,"deaf","no_shift"
"30006","F","D",29,233,0.63855421686747,NA,"adult",575,"deaf","C_T"
"30006","F","D",30,767,0.76530612244898,NA,"adult",575,"deaf","C_T"
"30006","F","D",32,1867,0.603658536585366,NA,"adult",575,"deaf","C_T"
"30006","F","D",33,1067,0.80952380952381,NA,"adult",575,"deaf","C_T"
"30006","F","D",34,1700,0.696629213483146,NA,"adult",575,"deaf","C_T"
"30006","F","D",35,1600,0.60625,NA,"adult",575,"deaf","C_T"
"30006","F","D",36,NA,0.5,NA,"adult",575,"deaf","no_shift"
"30006","F","D",37,1500,0.75,NA,"adult",575,"deaf","C_T"
"30006","F","D",38,1100,0.530864197530864,NA,"adult",575,"deaf","C_T"
"30006","F","D",39,1567,0.276470588235294,NA,"adult",575,"deaf","C_D"
"30007","F","D",2,767,0.819277108433735,NA,"adult",695,"deaf","C_T"
"30007","F","D",3,400,0.623529411764706,NA,"adult",695,"deaf","C_T"
"30007","F","D",4,833,0.65,NA,"adult",695,"deaf","C_T"
"30007","F","D",5,567,0.634146341463415,NA,"adult",695,"deaf","C_T"
"30007","F","D",6,333,0.641975308641975,NA,"adult",695,"deaf","C_T"
"30007","F","D",7,700,0.628205128205128,NA,"adult",695,"deaf","C_T"
"30007","F","D",8,400,0.586666666666667,NA,"adult",695,"deaf","C_T"
"30007","F","D",9,400,0.695121951219512,NA,"adult",695,"deaf","C_T"
"30007","F","D",10,200,0.6375,NA,"adult",695,"deaf","C_T"
"30007","F","D",11,467,0.6375,NA,"adult",695,"deaf","C_T"
"30007","F","D",12,267,0.645569620253165,NA,"adult",695,"deaf","C_T"
"30007","F","D",13,633,0.65,NA,"adult",695,"deaf","C_T"
"30007","F","D",14,633,0.574626865671642,NA,"adult",695,"deaf","C_T"
"30007","F","D",15,300,0.648148148148148,NA,"adult",695,"deaf","C_T"
"30007","F","D",16,300,0.666666666666667,NA,"adult",695,"deaf","C_T"
"30007","F","D",17,367,0.651898734177215,NA,"adult",695,"deaf","C_T"
"30007","F","D",19,267,0.69375,NA,"adult",695,"deaf","C_T"
"30007","F","D",20,233,0.674698795180723,NA,"adult",695,"deaf","C_T"
"30007","F","D",21,533,0.852564102564103,NA,"adult",695,"deaf","C_T"
"30007","F","D",22,567,0.66875,NA,"adult",695,"deaf","C_T"
"30007","F","D",23,300,0.730769230769231,NA,"adult",695,"deaf","C_T"
"30007","F","D",24,267,0.823170731707317,NA,"adult",695,"deaf","C_T"
"30007","F","D",25,400,0.648148148148148,NA,"adult",695,"deaf","C_T"
"30007","F","D",26,267,0.682432432432432,NA,"adult",695,"deaf","C_T"
"30007","F","D",27,200,0.708333333333333,NA,"adult",695,"deaf","C_T"
"30007","F","D",28,467,0.666666666666667,NA,"adult",695,"deaf","C_T"
"30009","F","D",2,933,0.75,81,"child",39,"hearing","C_T"
"30009","F","D",3,1033,0.560240963855422,81,"child",39,"hearing","C_D"
"30009","F","D",4,833,0.536144578313253,81,"child",39,"hearing","C_T"
"30009","F","D",5,967,0.481012658227848,81,"child",39,"hearing","C_D"
"30009","F","D",6,767,0.823529411764706,81,"child",39,"hearing","C_T"
"30009","F","D",7,1067,0.818181818181818,81,"child",39,"hearing","C_T"
"30009","F","D",8,1067,0.666666666666667,81,"child",39,"hearing","C_T"
"30009","F","D",9,2933,0.50561797752809,81,"child",39,"hearing","C_T"
"30009","F","D",11,667,0.887640449438202,81,"child",39,"hearing","C_T"
"30009","F","D",12,833,0.73780487804878,81,"child",39,"hearing","C_T"
"30009","F","D",13,1733,0.707865168539326,81,"child",39,"hearing","C_T"
"30009","F","D",14,933,0.557471264367816,81,"child",39,"hearing","C_T"
"30009","F","D",15,600,0.49375,81,"child",39,"hearing","C_T"
"30009","F","A",16,167,0.696428571428571,81,"child",39,"hearing","off_signer"
"30009","F","D",17,700,0.755813953488372,81,"child",39,"hearing","C_T"
"30009","F","D",18,533,0.728395061728395,81,"child",39,"hearing","C_T"
"30009","F","D",20,433,0.241176470588235,81,"child",39,"hearing","C_D"
"30009","F","D",21,1533,0.744444444444444,81,"child",39,"hearing","C_T"
"30009","F","D",22,767,0.36046511627907,81,"child",39,"hearing","C_T"
"30009","F","D",23,800,0.866666666666667,81,"child",39,"hearing","C_T"
"30009","F","A",24,0,0.855421686746988,81,"child",39,"hearing","off_signer"
"30009","F","D",25,933,0.323170731707317,81,"child",39,"hearing","C_D"
"30009","F","D",26,700,0.591463414634146,81,"child",39,"hearing","C_D"
"30009","F","D",27,1533,0.630952380952381,81,"child",39,"hearing","C_D"
"30009","F","A",29,867,0.377906976744186,81,"child",39,"hearing","off_signer"
"30009","F","A",30,0,0.21875,81,"child",39,"hearing","off_signer"
"30009","F","A",31,0,1,81,"child",39,"hearing","off_signer"
"30009","F","D",32,33,0.337837837837838,81,"child",39,"hearing","C_C"
"30009","F","D",33,NA,0.5,81,"child",39,"hearing","no_shift"
"30009","F","A",34,0,1,81,"child",39,"hearing","off_signer"
"30009","F","D",35,1867,0.685393258426966,81,"child",39,"hearing","C_T"
"30010","F","D",2,1133,0.732558139534884,77,"child",44,"hearing","C_T"
"30010","F","D",3,1000,0.820224719101124,77,"child",44,"hearing","C_T"
"30010","F","D",4,1333,0.775280898876405,77,"child",44,"hearing","C_T"
"30010","F","D",5,967,0.810344827586207,77,"child",44,"hearing","C_T"
"30010","F","D",6,1000,0.732558139534884,77,"child",44,"hearing","C_T"
"30010","F","D",7,1133,0.808988764044944,77,"child",44,"hearing","C_T"
"30010","F","D",8,933,0.711764705882353,77,"child",44,"hearing","C_D"
"30010","F","D",9,1400,0.666666666666667,77,"child",44,"hearing","C_D"
"30010","F","D",11,1567,0.735955056179775,77,"child",44,"hearing","C_T"
"30010","F","D",12,1433,0.672619047619048,77,"child",44,"hearing","C_T"
"30010","F","D",13,767,0.674157303370786,77,"child",44,"hearing","C_T"
"30010","F","D",14,1433,0.691860465116279,77,"child",44,"hearing","C_T"
"30010","F","D",15,867,0.71264367816092,77,"child",44,"hearing","C_D"
"30010","F","D",16,1200,0.793103448275862,77,"child",44,"hearing","C_T"
"30010","F","D",17,1300,0.770588235294118,77,"child",44,"hearing","C_T"
"30010","F","D",18,2000,0.662921348314607,77,"child",44,"hearing","C_T"
"30010","F","D",20,700,0.574074074074074,77,"child",44,"hearing","C_T"
"30010","F","D",21,NA,0.5,77,"child",44,"hearing","no_shift"
"30010","F","A",22,100,0.607142857142857,77,"child",44,"hearing","off_signer"
"30010","F","A",23,733,0.458823529411765,77,"child",44,"hearing","off_signer"
"30010","F","D",24,933,0.842696629213483,77,"child",44,"hearing","C_T"
"30010","F","A",25,67,0.65625,77,"child",44,"hearing","off_signer"
"30010","F","D",26,2333,0.471264367816092,77,"child",44,"hearing","C_D"
"30010","F","D",27,2033,0.464705882352941,77,"child",44,"hearing","C_D"
"30010","F","A",29,0,0.578947368421053,77,"child",44,"hearing","off_signer"
"30010","F","D",30,900,0.670731707317073,77,"child",44,"hearing","C_T"
"30010","F","D",31,1133,0.732558139534884,77,"child",44,"hearing","C_D"
"30010","F","A",32,NA,NA,77,"child",44,"hearing","off_signer"
"30010","F","D",33,833,0.854651162790698,77,"child",44,"hearing","C_T"
"30010","F","D",34,2867,0.51685393258427,77,"child",44,"hearing","C_T"
"30010","F","D",35,1367,0.666666666666667,77,"child",44,"hearing","C_T"
"30010","F","D",36,1267,0.788888888888889,77,"child",44,"hearing","C_T"
"30011","M","D",2,1633,0.701149425287356,19,"child",16,"deaf","C_T"
"30011","M","D",3,1467,0.375,19,"child",16,"deaf","C_D"
"30011","M","D",4,2200,0.592592592592593,19,"child",16,"deaf","C_T"
"30011","M","D",5,1633,0.56547619047619,19,"child",16,"deaf","C_T"
"30011","M","D",6,NA,0.5,19,"child",16,"deaf","no_shift"
"30011","M","D",7,NA,0.5,19,"child",16,"deaf","no_shift"
"30011","M","A",8,NA,0,19,"child",16,"deaf","off_signer"
"30011","M","D",9,NA,0.5,19,"child",16,"deaf","C_T"
"30011","M","A",11,NA,1,19,"child",16,"deaf","off_signer"
"30011","M","A",15,NA,0.854838709677419,19,"child",16,"deaf","off_signer"
"30011","M","A",18,NA,0,19,"child",16,"deaf","off_signer"
"30011","M","A",20,NA,1,19,"child",16,"deaf","off_signer"
"30014","M","D",2,NA,0.5,80,"child",33,"deaf","C_D"
"30014","M","A",3,0,0.707792207792208,80,"child",33,"deaf","off_signer"
"30014","M","A",6,NA,0.701754385964912,80,"child",33,"deaf","off_signer"
"30014","M","D",7,1167,0.784090909090909,80,"child",33,"deaf","C_T"
"30014","M","D",12,2533,0.452380952380952,80,"child",33,"deaf","C_D"
"30014","M","A",13,NA,0.154929577464789,80,"child",33,"deaf","off_signer"
"30014","M","D",14,1633,0.673333333333333,80,"child",33,"deaf","C_T"
"30014","M","D",15,533,0.693877551020408,80,"child",33,"deaf","C_D"
"30014","M","D",16,NA,0.5,80,"child",33,"deaf","no_shift"
"30014","M","A",17,NA,0.45,80,"child",33,"deaf","off_signer"
"30014","M","D",18,1800,0.657303370786517,80,"child",33,"deaf","C_T"
"30014","M","D",20,1200,0.608433734939759,80,"child",33,"deaf","C_T"
"30014","M","D",21,NA,0.5,80,"child",33,"deaf","no_shift"
"30014","M","D",22,1367,0.664772727272727,80,"child",33,"deaf","C_T"
"30014","M","D",23,1333,0.517241379310345,80,"child",33,"deaf","C_T"
"30014","M","A",24,0,0.666666666666667,80,"child",33,"deaf","off_signer"
"30014","M","D",25,1033,0.575581395348837,80,"child",33,"deaf","C_T"
"30014","M","D",26,633,0.62962962962963,80,"child",33,"deaf","C_T"
"30014","M","D",27,2400,0.477272727272727,80,"child",33,"deaf","C_D"
"30014","M","A",30,0,0.61875,80,"child",33,"deaf","off_signer"
"30014","M","D",31,1367,0.53448275862069,80,"child",33,"deaf","C_T"
"30014","M","D",34,1600,0.563218390804598,80,"child",33,"deaf","C_D"
"30014","M","A",35,533,0.516666666666667,80,"child",33,"deaf","off_signer"
"30014","M","D",36,1300,0.695402298850575,80,"child",33,"deaf","C_T"
"30015","F","D",2,1633,0.696428571428571,41,"child",21,"deaf","C_T"
"30015","F","D",3,1300,0.557471264367816,41,"child",21,"deaf","C_D"
"30015","F","D",4,NA,0.5,41,"child",21,"deaf","C_T"
"30015","F","A",5,33,0.238636363636364,41,"child",21,"deaf","off_signer"
"30015","F","A",6,167,0.723529411764706,41,"child",21,"deaf","off_signer"
"30015","F","A",8,0,0.764044943820225,41,"child",21,"deaf","off_signer"
"30015","F","D",9,1200,0.67816091954023,41,"child",21,"deaf","C_D"
"30015","F","D",13,33,0.753164556962025,41,"child",21,"deaf","C_T"
"30015","F","A",14,1633,0.682352941176471,41,"child",21,"deaf","off_signer"
"30015","F","D",18,800,0.764705882352941,41,"child",21,"deaf","C_T"
"30015","F","A",22,600,0.235294117647059,41,"child",21,"deaf","off_signer"
"30015","F","A",25,NA,1,41,"child",21,"deaf","off_signer"
"30015","F","D",26,1467,0.752808988764045,41,"child",21,"deaf","C_T"
"30015","F","A",30,900,0.603448275862069,41,"child",21,"deaf","off_signer"
"30015","F","A",31,933,0.551136363636364,41,"child",21,"deaf","off_signer"
"30015","F","D",32,1133,0.601190476190476,41,"child",21,"deaf","C_T"
"30015","F","D",33,333,0.805882352941176,41,"child",21,"deaf","C_T"
"30018","M","D",2,1133,0.5,41,"child",18,"hearing","C_D"
"30018","M","D",3,NA,0.5,41,"child",18,"hearing","C_T"
"30018","M","D",4,1300,0.452941176470588,41,"child",18,"hearing","C_T"
"30018","M","D",5,967,0.580246913580247,41,"child",18,"hearing","C_D"
"30018","M","D",6,1000,0.594117647058824,41,"child",18,"hearing","C_D"
"30018","M","D",7,1067,0.535294117647059,41,"child",18,"hearing","C_D"
"30018","M","D",8,1367,0.640350877192982,41,"child",18,"hearing","C_T"
"30018","M","D",9,700,0.658823529411765,41,"child",18,"hearing","C_T"
"30018","M","D",12,767,0.541176470588235,41,"child",18,"hearing","C_D"
"30018","M","D",13,600,0.726190476190476,41,"child",18,"hearing","C_T"
"30018","M","D",14,1033,0.641176470588235,41,"child",18,"hearing","C_T"
"30018","M","D",15,667,0.590361445783133,41,"child",18,"hearing","C_T"
"30018","M","D",16,1233,0.379310344827586,41,"child",18,"hearing","C_D"
"30018","M","D",17,700,0.574712643678161,41,"child",18,"hearing","C_T"
"30018","M","D",18,967,0.837078651685393,41,"child",18,"hearing","C_T"
"30018","M","D",20,800,0.541176470588235,41,"child",18,"hearing","C_D"
"30018","M","D",21,1133,0.353846153846154,41,"child",18,"hearing","C_D"
"30018","M","D",22,800,0.741176470588235,41,"child",18,"hearing","C_T"
"30018","M","D",23,767,0.570588235294118,41,"child",18,"hearing","C_D"
"30018","M","D",24,867,0.523529411764706,41,"child",18,"hearing","C_D"
"30018","M","D",25,733,0.862068965517241,41,"child",18,"hearing","C_T"
"30018","M","D",26,567,0.798850574712644,41,"child",18,"hearing","C_D"
"30018","M","D",27,1200,0.348837209302326,41,"child",18,"hearing","C_T"
"30018","M","D",29,1033,0.825842696629214,41,"child",18,"hearing","C_T"
"30018","M","D",30,700,0.67816091954023,41,"child",18,"hearing","C_T"
"30018","M","D",31,667,0.523529411764706,41,"child",18,"hearing","C_D"
"30018","M","D",32,767,0.591463414634146,41,"child",18,"hearing","C_T"
"30018","M","D",33,1000,0.387640449438202,41,"child",18,"hearing","C_D"
"30018","M","D",34,867,0.758620689655172,41,"child",18,"hearing","C_T"
"30019","M","D",2,NA,0.5,76,"child",29,"deaf","C_D"
"30019","M","D",3,1233,0.772727272727273,76,"child",29,"deaf","C_T"
"30019","M","D",4,NA,0.5,76,"child",29,"deaf","no_shift"
"30019","M","D",5,933,0.718390804597701,76,"child",29,"deaf","C_T"
"30019","M","D",6,933,0.738636363636364,76,"child",29,"deaf","C_T"
"30019","M","D",7,900,0.620481927710843,76,"child",29,"deaf","C_T"
"30019","M","D",8,1333,0.775280898876405,76,"child",29,"deaf","C_T"
"30019","M","A",9,2667,0.650602409638554,76,"child",29,"deaf","off_signer"
"30019","M","D",11,667,0.887640449438202,76,"child",29,"deaf","C_T"
"30019","M","D",12,633,0.893258426966292,76,"child",29,"deaf","C_T"
"30019","M","D",13,567,0.901162790697674,76,"child",29,"deaf","C_T"
"30019","M","D",14,933,0.842696629213483,76,"child",29,"deaf","C_T"
"30019","M","A",15,NA,0.359550561797753,76,"child",29,"deaf","off_signer"
"30019","M","D",16,1167,0.626436781609195,76,"child",29,"deaf","C_D"
"30019","M","D",17,833,0.85632183908046,76,"child",29,"deaf","C_T"
"30019","M","D",18,767,0.864705882352941,76,"child",29,"deaf","C_T"
"30019","M","D",20,800,0.865168539325843,76,"child",29,"deaf","C_T"
"30019","M","D",22,1767,0.702247191011236,76,"child",29,"deaf","C_T"
"30019","M","D",23,767,0.605882352941176,76,"child",29,"deaf","C_D"
"30019","M","D",24,767,0.827586206896552,76,"child",29,"deaf","C_T"
"30019","M","D",25,667,0.882352941176471,76,"child",29,"deaf","C_T"
"30019","M","D",26,767,0.655172413793103,76,"child",29,"deaf","C_T"
"30019","M","D",27,1100,0.572289156626506,76,"child",29,"deaf","C_D"
"30019","M","D",30,967,0.441176470588235,76,"child",29,"deaf","C_T"
"30019","M","D",31,800,0.865168539325843,76,"child",29,"deaf","C_T"
"30019","M","D",35,1200,0.202247191011236,76,"child",29,"deaf","C_D"
"30020","M","D",2,1533,0.298850574712644,73,"child",35,"hearing","C_D"
"30020","M","D",3,1567,0.613333333333333,73,"child",35,"hearing","C_T"
"30020","M","D",4,1700,0.673076923076923,73,"child",35,"hearing","C_T"
"30020","M","D",5,933,0.766666666666667,73,"child",35,"hearing","C_T"
"30020","M","D",6,667,0.767441860465116,73,"child",35,"hearing","C_T"
"30020","M","D",7,1167,0.65,73,"child",35,"hearing","C_T"
"30020","M","D",8,900,0.666666666666667,73,"child",35,"hearing","C_T"
"30020","M","D",9,700,0.58,73,"child",35,"hearing","C_T"
"30020","M","D",11,1867,0.685393258426966,73,"child",35,"hearing","C_T"
"30020","M","D",12,1133,0.77027027027027,73,"child",35,"hearing","C_T"
"30020","M","D",13,867,0.628571428571429,73,"child",35,"hearing","C_T"
"30020","M","D",14,1133,0.808988764044944,73,"child",35,"hearing","C_T"
"30020","M","D",18,2500,0.578651685393258,73,"child",35,"hearing","C_T"
"30020","M","D",20,900,0.839285714285714,73,"child",35,"hearing","C_T"
"30020","M","D",21,1333,0.582352941176471,73,"child",35,"hearing","C_D"
"30021","M","D",2,967,0.837078651685393,NA,"adult",694,"deaf","C_T"
"30021","M","D",3,867,0.853932584269663,NA,"adult",694,"deaf","C_T"
"30021","M","D",4,833,0.859550561797753,NA,"adult",694,"deaf","C_T"
"30021","M","D",5,1067,0.820224719101124,NA,"adult",694,"deaf","C_T"
"30021","M","D",6,700,0.820987654320988,NA,"adult",694,"deaf","C_T"
"30021","M","D",7,733,0.876404494382023,NA,"adult",694,"deaf","C_T"
"30021","M","D",8,867,0.820987654320988,NA,"adult",694,"deaf","C_T"
"30021","M","D",9,1167,0.803370786516854,NA,"adult",694,"deaf","C_T"
"30021","M","D",10,767,0.872222222222222,NA,"adult",694,"deaf","C_T"
"30021","M","D",11,667,0.67948717948718,NA,"adult",694,"deaf","C_T"
"30021","M","D",12,1000,0.831460674157303,NA,"adult",694,"deaf","C_T"
"30021","M","D",13,1000,0.831460674157303,NA,"adult",694,"deaf","C_T"
"30021","M","D",14,767,0.870786516853933,NA,"adult",694,"deaf","C_T"
"30021","M","D",15,600,0.9,NA,"adult",694,"deaf","C_T"
"30021","M","D",16,733,0.747126436781609,NA,"adult",694,"deaf","C_D"
"30021","M","D",17,967,0.837078651685393,NA,"adult",694,"deaf","C_T"
"30021","M","D",19,667,0.888888888888889,NA,"adult",694,"deaf","C_T"
"30021","M","D",20,600,0.898876404494382,NA,"adult",694,"deaf","C_T"
"30021","M","D",21,1333,0.775280898876405,NA,"adult",694,"deaf","C_T"
"30021","M","D",22,767,0.870786516853933,NA,"adult",694,"deaf","C_T"
"30021","M","D",23,967,0.837078651685393,NA,"adult",694,"deaf","C_T"
"30021","M","D",24,767,0.870786516853933,NA,"adult",694,"deaf","C_T"
"30021","M","D",25,800,0.865168539325843,NA,"adult",694,"deaf","C_T"
"30021","M","D",26,967,0.838888888888889,NA,"adult",694,"deaf","C_T"
"30021","M","D",27,567,0.904494382022472,NA,"adult",694,"deaf","C_T"
"30021","M","D",28,633,0.894444444444444,NA,"adult",694,"deaf","C_T"
"30021","M","D",29,533,0.910112359550562,NA,"adult",694,"deaf","C_T"
"30021","M","D",30,867,0.853932584269663,NA,"adult",694,"deaf","C_T"
"30021","M","D",32,1100,0.814606741573034,NA,"adult",694,"deaf","C_T"
"30021","M","D",33,733,0.877777777777778,NA,"adult",694,"deaf","C_T"
"30021","M","D",34,633,0.893258426966292,NA,"adult",694,"deaf","C_T"
"30021","M","D",35,1233,0.792134831460674,NA,"adult",694,"deaf","C_T"
"30021","M","D",36,767,0.872222222222222,NA,"adult",694,"deaf","C_T"
"30021","M","D",37,1033,0.78735632183908,NA,"adult",694,"deaf","C_T"
"30021","M","D",38,600,0.898876404494382,NA,"adult",694,"deaf","C_T"
"30021","M","D",39,767,0.872222222222222,NA,"adult",694,"deaf","C_T"
"30022","M","D",2,667,0.568965517241379,NA,"adult",350,"deaf","C_T"
"30022","M","D",3,467,0.58433734939759,NA,"adult",350,"deaf","C_T"
"30022","M","D",4,633,0.632530120481928,NA,"adult",350,"deaf","C_T"
"30022","M","D",5,967,0.672619047619048,NA,"adult",350,"deaf","C_T"
"30022","M","D",6,733,0.576923076923077,NA,"adult",350,"deaf","C_T"
"30022","M","D",7,1100,0.582352941176471,NA,"adult",350,"deaf","C_T"
"30022","M","D",8,900,0.576923076923077,NA,"adult",350,"deaf","C_T"
"30022","M","D",9,633,0.556818181818182,NA,"adult",350,"deaf","C_T"
"30022","M","D",10,700,0.598765432098765,NA,"adult",350,"deaf","C_T"
"30022","M","D",11,1733,0.567567567567568,NA,"adult",350,"deaf","C_T"
"30022","M","D",12,333,0.71264367816092,NA,"adult",350,"deaf","C_T"
"30022","M","D",13,800,0.76,NA,"adult",350,"deaf","C_D"
"30022","M","D",14,633,0.893258426966292,NA,"adult",350,"deaf","C_T"
"30022","M","D",15,400,0.650602409638554,NA,"adult",350,"deaf","C_T"
"30022","M","D",16,667,0.795180722891566,NA,"adult",350,"deaf","C_D"
"30022","M","D",17,633,0.623376623376623,NA,"adult",350,"deaf","C_T"
"30022","M","D",19,600,0.628205128205128,NA,"adult",350,"deaf","C_T"
"30022","M","D",20,1933,0.59375,NA,"adult",350,"deaf","C_T"
"30022","M","D",21,1133,0.628048780487805,NA,"adult",350,"deaf","C_T"
"30022","M","D",22,433,0.6875,NA,"adult",350,"deaf","C_T"
"30022","M","D",23,433,0.654320987654321,NA,"adult",350,"deaf","C_T"
"30022","M","D",24,100,0.578313253012048,NA,"adult",350,"deaf","C_T"
"30024","M","D",3,NA,0.5,57,"child",21,"deaf","no_shift"
"30024","M","D",4,1700,0.296511627906977,57,"child",21,"deaf","C_D"
"30024","M","D",5,2200,0.629213483146067,57,"child",21,"deaf","C_T"
"30024","M","D",6,1200,0.649425287356322,57,"child",21,"deaf","C_T"
"30024","M","D",7,1600,0.730337078651685,57,"child",21,"deaf","C_T"
"30024","M","D",8,533,0.370588235294118,57,"child",21,"deaf","C_T"
"30024","M","D",9,1533,0.431034482758621,57,"child",21,"deaf","C_D"
"30024","M","A",11,NA,0,57,"child",21,"deaf","off_signer"
"30024","M","A",12,NA,0.364705882352941,57,"child",21,"deaf","off_signer"
"30024","M","D",14,1067,0.681818181818182,57,"child",21,"deaf","C_T"
"30024","M","D",15,733,0.574712643678161,57,"child",21,"deaf","C_T"
"30024","M","D",17,667,0.539772727272727,57,"child",21,"deaf","C_T"
"30024","M","D",18,700,0.718390804597701,57,"child",21,"deaf","C_D"
"30024","M","D",20,1100,0.814606741573034,57,"child",21,"deaf","C_T"
"30024","M","D",22,NA,0.5,57,"child",21,"deaf","C_D"
"30024","M","D",23,567,0.6,57,"child",21,"deaf","C_D"
"30024","M","D",29,733,0.683908045977011,57,"child",21,"deaf","C_T"
"30024","M","D",30,1433,0.551724137931034,57,"child",21,"deaf","C_T"
"30024","M","A",31,0,0.620689655172414,57,"child",21,"deaf","off_signer"
"30024","M","D",32,533,0.0898876404494382,57,"child",21,"deaf","C_D"
"30024","M","D",33,1200,0.689655172413793,57,"child",21,"deaf","C_T"
"30024","M","D",34,533,0.833333333333333,57,"child",21,"deaf","C_D"
"30026","F","D",2,1267,0.680232558139535,50,"child",36,"deaf","C_T"
"30026","F","D",3,1133,0.808988764044944,50,"child",36,"deaf","C_T"
"30026","F","D",4,1333,0.726027397260274,50,"child",36,"deaf","C_T"
"30026","F","D",7,1133,0.666666666666667,50,"child",36,"deaf","C_T"
"30026","F","D",8,1233,0.650943396226415,50,"child",36,"deaf","C_T"
"30026","F","D",9,1100,0.558823529411765,50,"child",36,"deaf","C_D"
"30026","F","D",11,1100,0.633333333333333,50,"child",36,"deaf","C_T"
"30026","F","D",13,933,0.775862068965517,50,"child",36,"deaf","C_T"
"30026","F","D",14,933,0.658536585365854,50,"child",36,"deaf","C_T"
"30026","F","D",15,800,0.735632183908046,50,"child",36,"deaf","C_D"
"30026","F","D",16,1067,0.752873563218391,50,"child",36,"deaf","C_T"
"30026","F","A",17,300,0.666666666666667,50,"child",36,"deaf","off_signer"
"30026","F","D",18,1033,0.825842696629214,50,"child",36,"deaf","C_T"
"30026","F","D",20,1867,0.685393258426966,50,"child",36,"deaf","C_T"
"30026","F","D",21,2800,0.471910112359551,50,"child",36,"deaf","C_D"
"30026","F","D",22,1367,0.408045977011494,50,"child",36,"deaf","C_T"
"30026","F","D",23,1433,0.761111111111111,50,"child",36,"deaf","C_T"
"30026","F","D",24,1800,0.564516129032258,50,"child",36,"deaf","C_T"
"30026","F","D",25,633,0.893258426966292,50,"child",36,"deaf","C_T"
"30026","F","D",26,433,0.658823529411765,50,"child",36,"deaf","C_D"
"30026","F","D",27,1267,0.528735632183908,50,"child",36,"deaf","C_T"
"30026","F","A",30,567,0.724137931034483,50,"child",36,"deaf","off_signer"
"30026","F","D",33,867,0.718390804597701,50,"child",36,"deaf","C_T"
"30026","F","A",34,0,0.257575757575758,50,"child",36,"deaf","off_signer"
"30026","F","A",35,NA,0.898876404494382,50,"child",36,"deaf","off_signer"
"30027","M","D",2,1033,0.65,NA,"adult",379,"deaf","C_T"
"30027","M","D",3,900,0.552941176470588,NA,"adult",379,"deaf","C_T"
"30027","M","D",4,1000,0.642857142857143,NA,"adult",379,"deaf","C_T"
"30027","M","D",5,1133,0.641176470588235,NA,"adult",379,"deaf","C_T"
"30027","M","D",6,900,0.582352941176471,NA,"adult",379,"deaf","C_T"
"30027","M","D",7,733,0.658823529411765,NA,"adult",379,"deaf","C_T"
"30027","M","D",8,700,0.616438356164384,NA,"adult",379,"deaf","C_T"
"30027","M","D",9,533,0.66875,NA,"adult",379,"deaf","C_T"
"30027","M","D",11,1133,0.802325581395349,NA,"adult",379,"deaf","C_T"
"30027","M","D",12,833,0.630952380952381,NA,"adult",379,"deaf","C_T"
"30027","M","D",13,700,0.6125,NA,"adult",379,"deaf","C_T"
"30027","M","D",14,1133,0.621794871794872,NA,"adult",379,"deaf","C_T"
"30027","M","D",15,400,0.625,NA,"adult",379,"deaf","C_T"
"30027","M","D",16,767,0.798780487804878,NA,"adult",379,"deaf","C_D"
"30027","M","D",17,867,0.745098039215686,NA,"adult",379,"deaf","C_T"
"30027","M","D",18,633,0.620253164556962,NA,"adult",379,"deaf","C_T"
"30027","M","D",20,767,0.621951219512195,NA,"adult",379,"deaf","C_T"
"30027","M","D",21,1067,0.818181818181818,NA,"adult",379,"deaf","C_T"
"30027","M","D",22,600,0.646666666666667,NA,"adult",379,"deaf","C_T"
"30027","M","D",23,600,0.711538461538462,NA,"adult",379,"deaf","C_T"
"30027","M","D",24,600,0.601190476190476,NA,"adult",379,"deaf","C_T"
"30027","M","D",25,867,0.5875,NA,"adult",379,"deaf","C_T"
"30027","M","D",26,467,0.605263157894737,NA,"adult",379,"deaf","C_T"
"30027","M","D",27,767,0.755952380952381,NA,"adult",379,"deaf","C_T"
"30027","M","D",29,800,0.623456790123457,NA,"adult",379,"deaf","C_T"
"30027","M","D",30,600,0.592592592592593,NA,"adult",379,"deaf","C_T"
"30027","M","D",31,967,0.666666666666667,NA,"adult",379,"deaf","C_T"
"30027","M","D",32,833,0.608974358974359,NA,"adult",379,"deaf","C_T"
"30027","M","D",33,1267,0.651898734177215,NA,"adult",379,"deaf","C_T"
"30027","M","D",34,600,0.583333333333333,NA,"adult",379,"deaf","C_T"
"30027","M","D",35,633,0.617283950617284,NA,"adult",379,"deaf","C_T"
"30027","M","D",36,833,0.625,NA,"adult",379,"deaf","C_T"
"30028","F","D",2,167,0.664705882352941,60,"child",27,"hearing","C_T"
"30028","F","D",3,1733,0.707865168539326,60,"child",27,"hearing","C_T"
"30028","F","D",4,800,0.554878048780488,60,"child",27,"hearing","C_T"
"30028","F","A",5,67,0.664705882352941,60,"child",27,"hearing","off_signer"
"30028","F","D",6,900,0.597701149425287,60,"child",27,"hearing","C_T"
"30028","F","D",7,1533,0.333333333333333,60,"child",27,"hearing","C_D"
"30028","F","D",8,1133,0.808988764044944,60,"child",27,"hearing","C_T"
"30028","F","D",9,1200,0.617647058823529,60,"child",27,"hearing","C_D"
"30028","F","A",11,2400,0.377358490566038,60,"child",27,"hearing","off_signer"
"30028","F","A",12,NA,0.752873563218391,60,"child",27,"hearing","off_signer"
"30028","F","A",13,133,0.793103448275862,60,"child",27,"hearing","off_signer"
"30028","F","A",16,1767,0.512345679012346,60,"child",27,"hearing","off_signer"
"30028","F","D",17,67,0.104651162790698,60,"child",27,"hearing","C_D"
"30028","F","D",18,1133,0.64367816091954,60,"child",27,"hearing","C_T"
"30028","F","A",20,1133,0.481707317073171,60,"child",27,"hearing","off_signer"
"30028","F","D",21,333,0.647540983606557,60,"child",27,"hearing","C_D"
"30028","F","A",22,0,0.666666666666667,60,"child",27,"hearing","off_signer"
"30028","F","D",23,800,0.613924050632911,60,"child",27,"hearing","C_T"
"30028","F","D",24,400,0.403614457831325,60,"child",27,"hearing","C_D"
"30028","F","A",25,NA,0.764367816091954,60,"child",27,"hearing","off_signer"
"30029","M","D",2,833,0.45625,77,"child",35,"deaf","C_T"
"30029","M","D",3,1267,0.609195402298851,77,"child",35,"deaf","C_T"
"30029","M","D",4,1867,0.603448275862069,77,"child",35,"deaf","C_T"
"30029","M","D",5,1667,0.607142857142857,77,"child",35,"deaf","C_T"
"30029","M","D",6,767,0.755952380952381,77,"child",35,"deaf","C_T"
"30029","M","D",7,1367,0.706896551724138,77,"child",35,"deaf","C_T"
"30029","M","D",8,633,0.649425287356322,77,"child",35,"deaf","C_T"
"30029","M","D",9,1067,0.80952380952381,77,"child",35,"deaf","C_T"
"30029","M","D",11,1533,0.654761904761905,77,"child",35,"deaf","C_T"
"30029","M","D",12,1200,0.574712643678161,77,"child",35,"deaf","C_T"
"30029","M","D",13,700,0.882022471910112,77,"child",35,"deaf","C_T"
"30029","M","D",14,1467,0.358823529411765,77,"child",35,"deaf","C_D"
"30029","M","D",15,NA,0.5,77,"child",35,"deaf","no_shift"
"30029","M","D",16,1000,0.470588235294118,77,"child",35,"deaf","C_D"
"30029","M","D",17,1133,0.716666666666667,77,"child",35,"deaf","C_T"
"30029","M","D",18,1133,0.695402298850575,77,"child",35,"deaf","C_T"
"30029","M","D",20,767,0.55421686746988,77,"child",35,"deaf","C_T"
"30029","M","D",21,733,0.782352941176471,77,"child",35,"deaf","C_T"
"30029","M","D",22,1633,0.724719101123595,77,"child",35,"deaf","C_T"
"30029","M","D",23,1567,0.64367816091954,77,"child",35,"deaf","C_T"
"30029","M","D",24,1167,0.558823529411765,77,"child",35,"deaf","C_T"
"30029","M","D",25,1033,0.825842696629214,77,"child",35,"deaf","C_T"
"30029","M","D",26,833,0.785714285714286,77,"child",35,"deaf","C_T"
"30029","M","D",27,1300,0.232142857142857,77,"child",35,"deaf","C_D"
"30029","M","D",29,1233,0.603448275862069,77,"child",35,"deaf","C_D"
"30029","M","D",30,867,0.852272727272727,77,"child",35,"deaf","C_T"
"30029","M","D",31,1300,0.780898876404494,77,"child",35,"deaf","C_T"
"30029","M","D",33,1733,0.707865168539326,77,"child",35,"deaf","C_T"
"30029","M","D",34,1333,0.770114942528736,77,"child",35,"deaf","C_T"
"30029","M","D",35,1367,0.58695652173913,77,"child",35,"deaf","C_D"
"30029","M","D",36,867,0.853932584269663,77,"child",35,"deaf","C_T"
"30036","M","D",3,1167,0.655172413793103,75,"child",42,"deaf","C_T"
"30036","M","D",4,2000,0.662921348314607,75,"child",42,"deaf","C_T"
"30036","M","D",5,1567,0.735955056179775,75,"child",42,"deaf","C_T"
"30036","M","D",6,633,0.793103448275862,75,"child",42,"deaf","C_T"
"30036","M","D",7,967,0.758620689655172,75,"child",42,"deaf","C_T"
"30036","M","D",8,900,0.668604651162791,75,"child",42,"deaf","C_D"
"30037","F","D",2,900,0.724137931034483,NA,"child",21,"hearing","C_T"
"30037","F","D",3,767,0.604938271604938,NA,"child",21,"hearing","C_D"
"30037","F","D",4,NA,0.5,NA,"child",21,"hearing","no_shift"
"30037","F","D",5,NA,0.5,NA,"child",21,"hearing","no_shift"
"30037","F","D",6,867,0.67816091954023,NA,"child",21,"hearing","C_T"
"30037","F","D",7,1167,0.413793103448276,NA,"child",21,"hearing","C_D"
"30037","F","D",8,1267,0.329268292682927,NA,"child",21,"hearing","C_D"
"30037","F","D",9,700,0.767857142857143,NA,"child",21,"hearing","C_T"
"30037","F","D",16,933,0.67816091954023,NA,"child",21,"hearing","C_T"
"30037","F","D",18,600,0.64367816091954,NA,"child",21,"hearing","C_T"
"30037","F","D",20,1167,0.803370786516854,NA,"child",21,"hearing","C_T"
"30037","F","D",21,1967,0.668539325842697,NA,"child",21,"hearing","C_T"
"30037","F","D",22,1567,0.724137931034483,NA,"child",21,"hearing","C_T"
"30037","F","D",23,2167,0.634831460674157,NA,"child",21,"hearing","C_T"
"30037","F","D",24,633,0.660919540229885,NA,"child",21,"hearing","C_T"
"30037","F","A",29,0,0.652941176470588,NA,"child",21,"hearing","off_signer"
"30037","F","D",30,600,0.71875,NA,"child",21,"hearing","C_T"
"30044","F","D",2,967,0.632530120481928,NA,"adult",276,"deaf","C_T"
"30044","F","D",3,767,0.634615384615385,NA,"adult",276,"deaf","C_T"
"30044","F","D",4,533,0.574712643678161,NA,"adult",276,"deaf","C_T"
"30044","F","D",5,500,0.679012345679012,NA,"adult",276,"deaf","C_T"
"30044","F","D",6,800,0.58433734939759,NA,"adult",276,"deaf","C_T"
"30044","F","D",7,500,0.569767441860465,NA,"adult",276,"deaf","C_T"
"30044","F","D",8,467,0.601190476190476,NA,"adult",276,"deaf","C_T"
"30044","F","D",9,500,0.576470588235294,NA,"adult",276,"deaf","C_T"
"30044","F","D",11,1000,0.582352941176471,NA,"adult",276,"deaf","C_T"
"30044","F","D",12,600,0.552941176470588,NA,"adult",276,"deaf","C_T"
"30044","F","D",13,367,0.540229885057471,NA,"adult",276,"deaf","C_T"
"30044","F","D",14,533,0.534883720930233,NA,"adult",276,"deaf","C_T"
"30044","F","D",15,367,0.53448275862069,NA,"adult",276,"deaf","C_T"
"30044","F","D",16,800,0.564705882352941,NA,"adult",276,"deaf","C_T"
"30044","F","D",17,567,0.558139534883721,NA,"adult",276,"deaf","C_T"
"30044","F","D",18,667,0.555555555555556,NA,"adult",276,"deaf","C_T"
"30044","F","D",20,533,0.547058823529412,NA,"adult",276,"deaf","C_T"
"30044","F","D",21,600,0.545977011494253,NA,"adult",276,"deaf","C_T"
"30044","F","D",22,500,0.528735632183908,NA,"adult",276,"deaf","C_T"
"30044","F","D",23,367,0.540229885057471,NA,"adult",276,"deaf","C_T"
"30044","F","D",24,500,0.53448275862069,NA,"adult",276,"deaf","C_T"
"30044","F","D",25,400,0.551724137931034,NA,"adult",276,"deaf","C_T"
"30044","F","D",26,267,0.540229885057471,NA,"adult",276,"deaf","C_T"
"30044","F","D",27,867,0.557471264367816,NA,"adult",276,"deaf","C_T"
"30044","F","D",29,600,0.591463414634146,NA,"adult",276,"deaf","C_T"
"30044","F","D",30,400,0.542682926829268,NA,"adult",276,"deaf","C_T"
"30044","F","D",31,533,0.540229885057471,NA,"adult",276,"deaf","C_T"
"30044","F","D",32,267,0.553571428571429,NA,"adult",276,"deaf","C_T"
"30044","F","D",33,433,0.544943820224719,NA,"adult",276,"deaf","C_T"
"30044","F","D",34,200,0.53448275862069,NA,"adult",276,"deaf","C_T"
"30044","F","D",35,533,0.545454545454545,NA,"adult",276,"deaf","C_T"
"30044","F","D",36,533,0.540229885057471,NA,"adult",276,"deaf","C_T"
"30046","F","D",2,1333,0.614942528735632,72,"child",22,"hearing","C_T"
"30046","F","D",3,1967,0.626436781609195,72,"child",22,"hearing","C_T"
"30046","F","D",4,2200,0.370786516853933,72,"child",22,"hearing","C_D"
"30046","F","D",5,833,0.488235294117647,72,"child",22,"hearing","C_D"
"30046","F","D",6,1467,0.752808988764045,72,"child",22,"hearing","C_T"
"30046","F","D",7,1233,0.792134831460674,72,"child",22,"hearing","C_T"
"30046","F","D",8,1700,0.713483146067416,72,"child",22,"hearing","C_T"
"30046","F","D",9,1633,0.706896551724138,72,"child",22,"hearing","C_T"
"30046","F","D",11,1400,0.758620689655172,72,"child",22,"hearing","C_T"
"30046","F","A",12,167,0.658536585365854,72,"child",22,"hearing","off_signer"
"30046","F","D",13,NA,0.5,72,"child",22,"hearing","no_shift"
"30046","F","D",14,1300,0.234939759036145,72,"child",22,"hearing","C_D"
"30046","F","D",15,600,0.701149425287356,72,"child",22,"hearing","C_D"
"30046","F","D",16,1067,0.820224719101124,72,"child",22,"hearing","C_T"
"30046","F","D",17,700,0.339080459770115,72,"child",22,"hearing","C_T"
"30046","F","D",18,333,0.626436781609195,72,"child",22,"hearing","C_T"
"30046","F","D",20,767,0.870786516853933,72,"child",22,"hearing","C_T"
"30048","M","D",3,1433,0.635294117647059,31,"child",19,"deaf","C_T"
"30048","M","D",4,1067,0.723529411764706,31,"child",19,"deaf","C_T"
"30048","M","D",5,867,0.608433734939759,31,"child",19,"deaf","C_D"
"30048","M","D",6,1233,0.64367816091954,31,"child",19,"deaf","C_T"
"30048","M","D",7,1167,0.196629213483146,31,"child",19,"deaf","C_D"
"30048","M","A",8,NA,0.707865168539326,31,"child",19,"deaf","off_signer"
"30048","M","D",9,2267,0.617977528089888,31,"child",19,"deaf","C_T"
"30048","M","D",11,1100,0.814606741573034,31,"child",19,"deaf","C_T"
"30048","M","D",12,2400,0.595505617977528,31,"child",19,"deaf","C_T"
"30048","M","D",13,667,0.767045454545455,31,"child",19,"deaf","C_T"
"30048","M","D",14,NA,0.5,31,"child",19,"deaf","C_T"
"30048","M","A",15,300,0.647058823529412,31,"child",19,"deaf","off_signer"
"30048","M","A",17,NA,0.637931034482759,31,"child",19,"deaf","off_signer"
"30048","M","D",18,1500,0.747191011235955,31,"child",19,"deaf","C_T"
"30048","M","D",20,1333,0.775280898876405,31,"child",19,"deaf","C_T"
"30048","M","D",21,1100,0.744318181818182,31,"child",19,"deaf","C_T"
"30048","M","A",22,0,0.724137931034483,31,"child",19,"deaf","off_signer"
"30048","M","D",23,700,0.614942528735632,31,"child",19,"deaf","C_T"
"30048","M","D",24,1133,0.808988764044944,31,"child",19,"deaf","C_T"
"30048","M","A",25,567,0.672413793103448,31,"child",19,"deaf","off_signer"
"30048","M","D",26,2400,0.595505617977528,31,"child",19,"deaf","C_T"
"30048","M","D",29,1300,0.780898876404494,31,"child",19,"deaf","C_T"
"30048","M","D",31,2500,0.578651685393258,31,"child",19,"deaf","C_T"
"30048","M","D",32,800,0.759493670886076,31,"child",19,"deaf","C_T"
"30048","M","D",34,1500,0.704819277108434,31,"child",19,"deaf","C_T"
"30048","M","D",36,1300,0.770588235294118,31,"child",19,"deaf","C_T"
"30059","F","D",2,800,0.74390243902439,NA,"adult",575,"deaf","C_D"
"30059","F","D",3,600,0.898876404494382,NA,"adult",575,"deaf","C_T"
"30059","F","D",4,700,0.882022471910112,NA,"adult",575,"deaf","C_T"
"30059","F","D",5,1033,0.825842696629214,NA,"adult",575,"deaf","C_T"
"30059","F","D",6,600,0.875,NA,"adult",575,"deaf","C_T"
"30059","F","D",7,1100,0.752873563218391,NA,"adult",575,"deaf","C_T"
"30059","F","D",8,500,0.869318181818182,NA,"adult",575,"deaf","C_T"
"30059","F","D",9,700,0.882022471910112,NA,"adult",575,"deaf","C_T"
"30059","F","D",10,133,0.781609195402299,NA,"adult",575,"deaf","C_T"
"30059","F","D",11,467,0.801136363636364,NA,"adult",575,"deaf","C_T"
"30059","F","D",12,500,0.770114942528736,NA,"adult",575,"deaf","C_T"
"30059","F","D",13,800,0.744318181818182,NA,"adult",575,"deaf","C_T"
"30059","F","D",14,667,0.767045454545455,NA,"adult",575,"deaf","C_T"
"30059","F","D",15,467,0.775862068965517,NA,"adult",575,"deaf","C_T"
"30059","F","D",16,1167,0.707317073170732,NA,"adult",575,"deaf","C_T"
"30059","F","D",17,767,0.741176470588235,NA,"adult",575,"deaf","C_D"
"30059","F","D",19,567,0.718390804597701,NA,"adult",575,"deaf","C_T"
"30059","F","D",20,667,0.698863636363636,NA,"adult",575,"deaf","C_T"
"30059","F","D",21,1133,0.727272727272727,NA,"adult",575,"deaf","C_T"
"30059","F","D",22,567,0.683908045977011,NA,"adult",575,"deaf","C_T"
"30059","F","D",23,800,0.672413793103448,NA,"adult",575,"deaf","C_T"
"30059","F","D",24,467,0.686046511627907,NA,"adult",575,"deaf","C_T"
"30059","F","D",25,333,0.724137931034483,NA,"adult",575,"deaf","C_T"
"30059","F","D",26,833,0.740963855421687,NA,"adult",575,"deaf","C_T"
"30059","F","D",27,900,0.755952380952381,NA,"adult",575,"deaf","C_T"
"30059","F","D",28,1033,0.676470588235294,NA,"adult",575,"deaf","C_T"
"30059","F","D",29,367,0.655172413793103,NA,"adult",575,"deaf","C_T"
"30059","F","D",30,700,0.6875,NA,"adult",575,"deaf","C_T"
"30059","F","D",32,933,0.68125,NA,"adult",575,"deaf","C_T"
"30059","F","D",33,300,0.69047619047619,NA,"adult",575,"deaf","C_T"
"30059","F","D",34,167,0.6875,NA,"adult",575,"deaf","C_T"
"30059","F","D",35,733,0.67816091954023,NA,"adult",575,"deaf","C_T"
"30059","F","D",36,633,0.698863636363636,NA,"adult",575,"deaf","C_T"
"30059","F","D",37,600,0.702247191011236,NA,"adult",575,"deaf","C_T"
"30059","F","D",38,533,0.67816091954023,NA,"adult",575,"deaf","C_T"
"30059","F","D",39,600,0.64367816091954,NA,"adult",575,"deaf","C_T"
"30060","F","D",2,733,0.784090909090909,NA,"adult",246,"hearing","C_T"
"30060","F","D",3,733,0.798850574712644,NA,"adult",246,"hearing","C_T"
"30060","F","D",4,700,0.827380952380952,NA,"adult",246,"hearing","C_T"
"30060","F","D",5,467,0.785714285714286,NA,"adult",246,"hearing","C_T"
"30060","F","D",6,567,0.779069767441861,NA,"adult",246,"hearing","C_T"
"30060","F","D",7,600,0.785714285714286,NA,"adult",246,"hearing","C_T"
"30060","F","D",8,367,0.792682926829268,NA,"adult",246,"hearing","C_T"
"30060","F","D",9,767,0.791666666666667,NA,"adult",246,"hearing","C_T"
"30060","F","D",10,833,0.784090909090909,NA,"adult",246,"hearing","C_T"
"30060","F","D",11,533,0.753086419753086,NA,"adult",246,"hearing","C_T"
"30060","F","D",12,333,0.744047619047619,NA,"adult",246,"hearing","C_T"
"30060","F","D",13,633,0.75,NA,"adult",246,"hearing","C_T"
"30060","F","D",14,633,0.83974358974359,NA,"adult",246,"hearing","C_T"
"30060","F","D",15,667,0.794117647058823,NA,"adult",246,"hearing","C_T"
"30060","F","D",16,267,0.694444444444444,NA,"adult",246,"hearing","C_T"
"30060","F","D",17,600,0.753012048192771,NA,"adult",246,"hearing","C_T"
"30060","F","D",19,567,0.753086419753086,NA,"adult",246,"hearing","C_T"
"30060","F","D",20,667,0.715116279069767,NA,"adult",246,"hearing","C_T"
"30060","F","D",21,633,0.854651162790698,NA,"adult",246,"hearing","C_T"
"30060","F","D",22,567,0.76875,NA,"adult",246,"hearing","C_T"
"30060","F","D",23,633,0.893258426966292,NA,"adult",246,"hearing","C_T"
"30060","F","D",24,467,0.8,NA,"adult",246,"hearing","C_T"
"30060","F","D",25,800,0.785714285714286,NA,"adult",246,"hearing","C_T"
"30060","F","D",26,700,0.82183908045977,NA,"adult",246,"hearing","C_T"
"30060","F","D",27,367,0.897590361445783,NA,"adult",246,"hearing","C_T"
"30060","F","D",28,433,0.852941176470588,NA,"adult",246,"hearing","C_T"
"30060","F","D",29,300,0.792682926829268,NA,"adult",246,"hearing","C_T"
"30060","F","D",30,633,0.879310344827586,NA,"adult",246,"hearing","C_T"
"30060","F","D",32,500,0.915730337078652,NA,"adult",246,"hearing","C_T"
"30060","F","D",33,167,0.971910112359551,NA,"adult",246,"hearing","C_T"
"30060","F","D",34,433,0.798701298701299,NA,"adult",246,"hearing","C_T"
"30060","F","D",35,733,0.775862068965517,NA,"adult",246,"hearing","C_T"
"30060","F","D",36,300,0.879746835443038,NA,"adult",246,"hearing","C_T"
"30060","F","D",37,433,0.890804597701149,NA,"adult",246,"hearing","C_D"
"30060","F","D",38,233,0.906666666666667,NA,"adult",246,"hearing","C_T"
"30060","F","D",39,500,0.763157894736842,NA,"adult",246,"hearing","C_T"
"30036","M","D",3,1000,0.735294117647059,75,"child",42,"deaf","C_T"
"30036","M","D",4,1967,0.668539325842697,75,"child",42,"deaf","C_T"
"30036","M","D",5,1633,0.724719101123595,75,"child",42,"deaf","C_T"
"30036","M","D",6,767,0.852941176470588,75,"child",42,"deaf","C_T"
"30036","M","D",7,900,0.5625,75,"child",42,"deaf","C_T"
"30036","M","D",8,700,0.547058823529412,75,"child",42,"deaf","C_D"
"30036","M","D",9,700,0.611764705882353,75,"child",42,"deaf","C_T"
"30036","M","D",11,1433,0.64367816091954,75,"child",42,"deaf","C_T"
"30036","M","D",12,567,0.740963855421687,75,"child",42,"deaf","C_D"
"30036","M","D",13,333,0.870588235294118,75,"child",42,"deaf","C_T"
"30036","M","D",14,1800,0.696629213483146,75,"child",42,"deaf","C_T"
"30036","M","D",17,567,0.552631578947368,75,"child",42,"deaf","C_T"
"30013","M","D",2,2800,0.528089887640449,81,"child",31,"deaf","C_T"
"30013","M","D",3,2300,0.612359550561798,81,"child",31,"deaf","C_T"
"30013","M","D",7,2867,0.522222222222222,81,"child",31,"deaf","C_T"
"30013","M","D",12,1200,0.598837209302326,81,"child",31,"deaf","C_T"
"30013","M","D",13,2167,0.544943820224719,81,"child",31,"deaf","C_T"
"30013","M","D",16,NA,0.5,81,"child",31,"deaf","no_shift"
"30013","M","D",17,2733,0.539325842696629,81,"child",31,"deaf","C_T"
"30013","M","D",21,NA,0.5,81,"child",31,"deaf","C_T"
"30013","M","D",23,900,0.539772727272727,81,"child",31,"deaf","C_T"
"30013","M","D",26,2467,0.574712643678161,81,"child",31,"deaf","C_T"
"30013","M","D",27,2633,0.561111111111111,81,"child",31,"deaf","C_T"
"30013","M","A",31,1100,0.602272727272727,81,"child",31,"deaf","off_signer"
"30013","M","D",32,1167,0.581395348837209,81,"child",31,"deaf","C_T"
"30013","M","D",34,1433,0.620689655172414,81,"child",31,"deaf","C_T"
"30013","M","D",36,1000,0.73125,81,"child",31,"deaf","C_T"
"30017","F","D",2,933,0.544943820224719,73,"child",35,"deaf","C_T"
"30017","F","D",3,900,0.715909090909091,73,"child",35,"deaf","C_T"
"30017","F","D",4,1033,0.666666666666667,73,"child",35,"deaf","C_T"
"30017","F","D",5,1267,0.713483146067416,73,"child",35,"deaf","C_T"
"30017","F","D",6,1133,0.609756097560976,73,"child",35,"deaf","C_T"
"30017","F","D",7,1300,0.651685393258427,73,"child",35,"deaf","C_T"
"30017","F","D",8,933,0.528409090909091,73,"child",35,"deaf","C_D"
"30017","F","D",9,1733,0.662921348314607,73,"child",35,"deaf","C_T"
"30017","F","D",11,1033,0.727272727272727,73,"child",35,"deaf","C_T"
"30017","F","D",12,1600,0.713483146067416,73,"child",35,"deaf","C_T"
"30017","F","D",13,767,0.585227272727273,73,"child",35,"deaf","C_T"
"30017","F","D",14,100,0.344827586206897,73,"child",35,"deaf","C_D"
"30017","F","D",15,833,0.396551724137931,73,"child",35,"deaf","C_D"
"30017","F","D",16,1333,0.607142857142857,73,"child",35,"deaf","C_T"
"30017","F","D",17,900,0.719101123595506,73,"child",35,"deaf","C_T"
"30017","F","D",23,833,0.511494252873563,73,"child",35,"deaf","C_T"
"30017","F","D",24,2167,0.373563218390805,73,"child",35,"deaf","C_D"
"30017","F","D",26,1900,0.320224719101124,73,"child",35,"deaf","C_D"
"30017","F","D",27,1900,0.676136363636364,73,"child",35,"deaf","C_T"
"30017","F","A",29,900,0.398876404494382,73,"child",35,"deaf","off_signer"
"30017","F","D",30,1700,0.3125,73,"child",35,"deaf","C_D"
"30017","F","D",31,2200,0.589285714285714,73,"child",35,"deaf","C_T"
"30017","F","D",33,1033,0.724719101123595,73,"child",35,"deaf","C_T"
"30025","F","D",3,2100,0.596590909090909,56,"child",26,"hearing","C_T"
"30025","F","D",4,167,0.415730337078652,56,"child",26,"hearing","C_D"
"30025","F","A",5,NA,0.210227272727273,56,"child",26,"hearing","off_signer"
"30025","F","D",7,1367,0.625,56,"child",26,"hearing","C_T"
"30025","F","D",8,2867,0.522222222222222,56,"child",26,"hearing","C_T"
"30025","F","D",11,NA,0.5,56,"child",26,"hearing","C_T"
"30025","F","D",12,1800,0.556179775280899,56,"child",26,"hearing","C_T"
"30025","F","D",14,400,0.642857142857143,56,"child",26,"hearing","C_T"
"30025","F","D",15,1200,0.606741573033708,56,"child",26,"hearing","C_T"
"30025","F","A",17,367,0.556818181818182,56,"child",26,"hearing","off_signer"
"30025","F","D",23,600,0.601123595505618,56,"child",26,"hearing","C_T"
"30025","F","D",24,2633,0.438888888888889,56,"child",26,"hearing","C_D"
"30025","F","D",25,1300,0.595505617977528,56,"child",26,"hearing","C_T"
"30025","F","D",26,1000,0.707865168539326,56,"child",26,"hearing","C_T"
"30031","M","D",2,1300,0.653409090909091,62,"child",23,"deaf","C_T"
"30031","M","D",3,1200,0.738636363636364,62,"child",23,"deaf","C_T"
"30031","M","D",4,1633,0.623595505617977,62,"child",23,"deaf","C_T"
"30031","M","D",5,2767,0.471590909090909,62,"child",23,"deaf","C_D"
"30031","M","D",6,600,0.761363636363636,62,"child",23,"deaf","C_T"
"30031","M","D",7,2000,0.666666666666667,62,"child",23,"deaf","C_T"
"30031","M","D",8,767,0.438202247191011,62,"child",23,"deaf","C_D"
"30031","M","D",9,1600,0.696629213483146,62,"child",23,"deaf","C_T"
"30031","M","D",11,1467,0.640449438202247,62,"child",23,"deaf","C_T"
"30031","M","D",13,1100,0.586206896551724,62,"child",23,"deaf","C_T"
"30031","M","A",14,167,0.552325581395349,62,"child",23,"deaf","off_signer"
"30031","M","D",16,1500,0.75,62,"child",23,"deaf","C_T"
"30031","M","D",17,1833,0.694444444444444,62,"child",23,"deaf","C_T"
"30031","M","D",18,2833,0.472222222222222,62,"child",23,"deaf","C_D"
"30031","M","D",20,1367,0.772222222222222,62,"child",23,"deaf","C_T"
"30031","M","D",21,1200,0.627118644067797,62,"child",23,"deaf","C_T"
"30031","M","D",22,2600,0.561797752808989,62,"child",23,"deaf","C_T"
"30031","M","A",23,433,0.460674157303371,62,"child",23,"deaf","off_signer"
"30031","M","D",24,633,0.556818181818182,62,"child",23,"deaf","C_T"
"30049","F","D",2,1600,0.733333333333333,69,"child",33,"deaf","C_T"
"30049","F","D",3,1533,0.649425287356322,69,"child",33,"deaf","C_T"
"30049","F","D",4,633,0.56547619047619,69,"child",33,"deaf","C_D"
"30049","F","D",7,1400,0.766666666666667,69,"child",33,"deaf","C_T"
"30049","F","D",9,1633,0.674418604651163,69,"child",33,"deaf","C_T"
"30049","F","A",11,0,0.555555555555556,69,"child",33,"deaf","off_signer"
"30049","F","D",12,1200,0.797752808988764,69,"child",33,"deaf","C_T"
"30049","F","D",13,1033,0.723529411764706,69,"child",33,"deaf","C_T"
"30049","F","D",14,2033,0.661111111111111,69,"child",33,"deaf","C_T"
"30049","F","D",15,NA,0.5,69,"child",33,"deaf","C_D"
"30049","F","D",17,1467,0.752808988764045,69,"child",33,"deaf","C_T"
"30049","F","D",18,1067,0.68452380952381,69,"child",33,"deaf","C_T"
"30049","F","D",20,767,0.772727272727273,69,"child",33,"deaf","C_T"
"30049","F","D",21,1467,0.755555555555556,69,"child",33,"deaf","C_T"
"30049","F","D",22,1033,0.721590909090909,69,"child",33,"deaf","C_T"
"30049","F","D",23,833,0.697674418604651,69,"child",33,"deaf","C_T"
"30049","F","D",27,1433,0.672413793103448,69,"child",33,"deaf","C_T"
"30049","F","D",29,2600,0.438202247191011,69,"child",33,"deaf","C_D"
"30049","F","D",30,1200,0.8,69,"child",33,"deaf","C_T"
"30049","F","D",31,NA,0.5,69,"child",33,"deaf","C_D"
"30049","F","D",32,1133,0.701149425287356,69,"child",33,"deaf","C_T"
"30050","F","D",2,1467,0.373493975903614,23,"child",18,"hearing","C_D"
"30050","F","D",3,333,0.878048780487805,23,"child",18,"hearing","C_T"
"30050","F","D",4,467,0.616666666666667,23,"child",18,"hearing","C_D"
"30050","F","D",5,467,0.885057471264368,23,"child",18,"hearing","C_T"
"30050","F","D",6,NA,0.5,23,"child",18,"hearing","C_T"
"30050","F","D",9,NA,0.5,23,"child",18,"hearing","no_shift"
"30050","F","A",11,NA,0.471910112359551,23,"child",18,"hearing","off_signer"
"30050","F","D",14,1900,0.58125,23,"child",18,"hearing","C_T"
"30050","F","D",30,133,0.398809523809524,23,"child",18,"hearing","C_T"
"30050","F","D",32,NA,0.5,23,"child",18,"hearing","C_T"
"30051","M","D",2,1267,0.511363636363636,67,"child",25,"deaf","C_T"
"30051","M","A",4,367,0.413793103448276,67,"child",25,"deaf","off_signer"
"30051","M","D",5,1667,0.563218390804598,67,"child",25,"deaf","C_D"
"30051","M","D",6,233,0.571428571428571,67,"child",25,"deaf","C_D"
"30051","M","D",8,1533,0.696629213483146,67,"child",25,"deaf","C_T"
"30051","M","D",9,1633,0.622093023255814,67,"child",25,"deaf","C_T"
"30051","M","D",12,2000,0.333333333333333,67,"child",25,"deaf","C_D"
"30051","M","A",13,NA,0.577777777777778,67,"child",25,"deaf","off_signer"
"30051","M","A",15,0,0.335365853658537,67,"child",25,"deaf","off_signer"
"30051","M","D",16,NA,0.5,67,"child",25,"deaf","C_T"
"30051","M","D",21,567,0.741379310344828,67,"child",25,"deaf","C_D"
"30051","M","D",22,1367,0.617977528089888,67,"child",25,"deaf","C_T"
"30051","M","D",23,1200,0.47093023255814,67,"child",25,"deaf","C_D"
"30051","M","D",29,367,0.352941176470588,67,"child",25,"deaf","C_D"
"30051","M","A",30,NA,0.51685393258427,67,"child",25,"deaf","off_signer"
"30051","M","D",31,100,0.695402298850575,67,"child",25,"deaf","C_D"
"30051","M","A",35,NA,0.854651162790698,67,"child",25,"deaf","off_signer"
"30051","M","D",36,2300,0.616666666666667,67,"child",25,"deaf","C_T"
"30052","F","D",2,NA,0.5,72,"child",28,"deaf","C_D"
"30052","F","D",3,1800,0.651162790697674,72,"child",28,"deaf","C_T"
"30052","F","D",4,1133,0.534090909090909,72,"child",28,"deaf","C_T"
"30052","F","D",5,NA,0.5,72,"child",28,"deaf","C_D"
"30052","F","D",6,967,0.558823529411765,72,"child",28,"deaf","C_T"
"30052","F","D",7,1200,0.590909090909091,72,"child",28,"deaf","C_T"
"30052","F","D",8,NA,0.5,72,"child",28,"deaf","no_shift"
"30052","F","D",9,967,0.541666666666667,72,"child",28,"deaf","C_T"
"30052","F","D",11,1167,0.535714285714286,72,"child",28,"deaf","C_T"
"30052","F","D",12,1000,0.475609756097561,72,"child",28,"deaf","C_T"
"30052","F","D",13,2967,0.505555555555556,72,"child",28,"deaf","C_T"
"30052","F","D",14,2067,0.647727272727273,72,"child",28,"deaf","C_T"
"30052","F","D",15,900,0.779069767441861,72,"child",28,"deaf","C_T"
"30052","F","D",17,1733,0.707865168539326,72,"child",28,"deaf","C_T"
"30052","F","D",18,NA,0.5,72,"child",28,"deaf","C_T"
"30052","F","D",20,1467,0.525316455696203,72,"child",28,"deaf","C_D"
"30052","F","D",27,967,0.587209302325581,72,"child",28,"deaf","C_D"
"30052","F","D",29,1433,0.428571428571429,72,"child",28,"deaf","C_T"
"30052","F","D",31,933,0.425287356321839,72,"child",28,"deaf","C_D"
"30052","F","D",35,1833,0.694444444444444,72,"child",28,"deaf","C_T"
"30066","F","D",2,300,0.655172413793103,78,"child",35,"hearing","C_T"
"30066","F","A",3,600,0.476744186046512,78,"child",35,"hearing","off_signer"
"30066","F","D",4,1300,0.620689655172414,78,"child",35,"hearing","C_T"
"30066","F","D",5,300,0.319767441860465,78,"child",35,"hearing","C_D"
"30066","F","D",6,1500,0.659090909090909,78,"child",35,"hearing","C_T"
"30066","F","D",7,633,0.704545454545455,78,"child",35,"hearing","C_D"
"30066","F","D",8,1600,0.710227272727273,78,"child",35,"hearing","C_T"
"30066","F","D",9,1233,0.761363636363636,78,"child",35,"hearing","C_T"
"30066","F","D",11,1067,0.679775280898876,78,"child",35,"hearing","C_T"
"30066","F","A",12,633,0.635294117647059,78,"child",35,"hearing","off_signer"
"30066","F","D",13,867,0.758823529411765,78,"child",35,"hearing","C_D"
"30066","F","A",14,267,0.511494252873563,78,"child",35,"hearing","off_signer"
"30066","F","D",15,1267,0.788888888888889,78,"child",35,"hearing","C_T"
"30066","F","D",16,1900,0.664705882352941,78,"child",35,"hearing","C_T"
"30066","F","D",17,1000,0.420454545454545,78,"child",35,"hearing","C_T"
"30066","F","D",18,2000,0.482758620689655,78,"child",35,"hearing","C_D"
"30066","F","D",20,NA,0.5,78,"child",35,"hearing","C_D"
"30066","F","D",21,NA,0.5,78,"child",35,"hearing","C_T"
"30066","F","A",22,2867,0.844827586206897,78,"child",35,"hearing","off_signer"
"30066","F","D",24,833,0.494117647058824,78,"child",35,"hearing","C_D"
"30066","F","D",25,1367,0.609195402298851,78,"child",35,"hearing","C_T"
"30066","F","A",26,NA,0.758426966292135,78,"child",35,"hearing","off_signer"
"30066","F","D",27,2233,0.534090909090909,78,"child",35,"hearing","C_T"
"30066","F","A",29,NA,0.797752808988764,78,"child",35,"hearing","off_signer"
"30066","F","A",30,NA,0.695945945945946,78,"child",35,"hearing","off_signer"
"30066","F","D",31,1100,0.814606741573034,78,"child",35,"hearing","C_T"
"30066","F","D",32,1167,0.805555555555556,78,"child",35,"hearing","C_T"
"30066","F","D",33,1800,0.696629213483146,78,"child",35,"hearing","C_T"
"30066","F","D",34,1133,0.811111111111111,78,"child",35,"hearing","C_T"
"30066","F","D",35,1033,0.685393258426966,78,"child",35,"hearing","C_T"
"30066","F","A",36,300,0.711764705882353,78,"child",35,"hearing","off_signer"
"30068","F","D",2,933,0.726744186046512,82,"child",53,"hearing","C_T"
"30068","F","D",3,2267,0.459770114942529,82,"child",53,"hearing","C_D"
"30068","F","D",6,767,0.523809523809524,82,"child",53,"hearing","C_D"
"30068","F","A",7,233,0.735632183908046,82,"child",53,"hearing","off_signer"
"30068","F","A",8,33,0.471264367816092,82,"child",53,"hearing","off_signer"
"30068","F","D",9,1433,0.758426966292135,82,"child",53,"hearing","C_T"
"30068","F","D",11,1067,0.627906976744186,82,"child",53,"hearing","C_T"
"30068","F","D",12,NA,0.5,82,"child",53,"hearing","C_T"
"30068","F","A",13,233,0.761627906976744,82,"child",53,"hearing","off_signer"
"30068","F","D",14,1600,0.733333333333333,82,"child",53,"hearing","C_T"
"30068","F","A",17,233,0.793103448275862,82,"child",53,"hearing","off_signer"
"30068","F","D",20,700,0.789156626506024,82,"child",53,"hearing","C_D"
"30068","F","D",21,1067,0.822222222222222,82,"child",53,"hearing","C_T"
"30068","F","D",22,1033,0.827777777777778,82,"child",53,"hearing","C_T"
"30068","F","D",23,967,0.837078651685393,82,"child",53,"hearing","C_T"
"30068","F","D",24,633,0.755813953488372,82,"child",53,"hearing","C_T"
"30068","F","A",25,167,0.775862068965517,82,"child",53,"hearing","off_signer"
"30068","F","A",26,NA,0.703488372093023,82,"child",53,"hearing","off_signer"
"30068","F","D",27,1000,0.747126436781609,82,"child",53,"hearing","C_T"
"30068","F","D",29,1200,0.797752808988764,82,"child",53,"hearing","C_T"
"30068","F","D",30,1033,0.827777777777778,82,"child",53,"hearing","C_T"
"30068","F","D",32,900,0.764367816091954,82,"child",53,"hearing","C_D"
"30068","F","D",33,1933,0.677777777777778,82,"child",53,"hearing","C_T"
"30068","F","D",34,1467,0.752808988764045,82,"child",53,"hearing","C_T"
"30068","F","D",35,800,0.770114942528736,82,"child",53,"hearing","C_T"
"30068","F","D",36,833,0.738636363636364,82,"child",53,"hearing","C_T"
"30069","M","D",2,1500,0.681818181818182,NA,"adult",295,NA,"C_T"
"30069","M","D",3,833,0.6,NA,"adult",295,NA,"C_T"
"30069","M","D",4,2500,0.583333333333333,NA,"adult",295,NA,"C_T"
"30069","M","D",5,833,0.662921348314607,NA,"adult",295,NA,"C_T"
"30069","M","D",6,333,0.460674157303371,NA,"adult",295,NA,"C_D"
"30069","M","D",7,167,0.730337078651685,NA,"adult",295,NA,"C_T"
"30069","M","D",8,733,0.679775280898876,NA,"adult",295,NA,"C_T"
"30069","M","D",9,267,0.765432098765432,NA,"adult",295,NA,"C_T"
"30069","M","D",11,NA,0.5,NA,"adult",295,NA,"no_shift"
"30069","M","D",12,233,0.64367816091954,NA,"adult",295,NA,"C_T"
"30069","M","D",13,267,0.635802469135803,NA,"adult",295,NA,"C_T"
"30069","M","D",14,1733,0.601351351351351,NA,"adult",295,NA,"C_T"
"30069","M","D",15,233,0.607954545454545,NA,"adult",295,NA,"C_T"
"30069","M","D",16,633,0.668539325842697,NA,"adult",295,NA,"C_T"
"30069","M","D",17,567,0.698529411764706,NA,"adult",295,NA,"C_T"
"30069","M","D",18,867,0.670454545454545,NA,"adult",295,NA,"C_T"
"30069","M","D",20,167,0.646067415730337,NA,"adult",295,NA,"C_T"
"30069","M","D",21,100,0.659090909090909,NA,"adult",295,NA,"C_T"
"30069","M","D",22,467,0.648148148148148,NA,"adult",295,NA,"C_T"
"30069","M","D",23,133,0.629213483146067,NA,"adult",295,NA,"C_T"
"30069","M","D",24,267,0.646067415730337,NA,"adult",295,NA,"C_T"
"30069","M","A",25,0,0.613095238095238,NA,"adult",295,NA,"off_signer"
"30069","M","D",26,100,0.623595505617977,NA,"adult",295,NA,"C_T"
"30069","M","D",27,233,0.710526315789474,NA,"adult",295,NA,"C_T"
"30069","M","D",29,33,0.685393258426966,NA,"adult",295,NA,"C_T"
"30069","M","D",30,200,0.674157303370786,NA,"adult",295,NA,"C_T"
"30069","M","D",31,200,0.710227272727273,NA,"adult",295,NA,"C_T"
"30069","M","A",32,NA,0.611111111111111,NA,"adult",295,NA,"off_signer"
"30069","M","D",33,433,0.738636363636364,NA,"adult",295,NA,"C_T"
"30069","M","A",34,0,0.642045454545455,NA,"adult",295,NA,"off_signer"
"30069","M","D",35,200,0.617977528089888,NA,"adult",295,NA,"C_T"
"30069","M","D",36,67,0.578651685393258,NA,"adult",295,NA,"C_T"
"30074","M","D",2,1900,0.561797752808989,NA,"adult",324,NA,"C_T"
"30074","M","D",3,1467,0.72289156626506,NA,"adult",324,NA,"C_T"
"30074","M","D",4,1067,0.573863636363636,NA,"adult",324,NA,"C_T"
"30074","M","D",5,433,0.775280898876405,NA,"adult",324,NA,"C_T"
"30074","M","D",6,667,0.738636363636364,NA,"adult",324,NA,"C_T"
"30074","M","D",7,200,0.865168539325843,NA,"adult",324,NA,"C_D"
"30074","M","D",8,667,0.775862068965517,NA,"adult",324,NA,"C_T"
"30074","M","D",9,700,0.858974358974359,NA,"adult",324,NA,"C_T"
"30074","M","D",11,967,0.837078651685393,NA,"adult",324,NA,"C_T"
"30074","M","D",12,267,0.949367088607595,NA,"adult",324,NA,"C_T"
"30074","M","D",13,333,0.93125,NA,"adult",324,NA,"C_T"
"30074","M","D",14,967,0.838888888888889,NA,"adult",324,NA,"C_T"
"30074","M","D",15,67,0.988888888888889,NA,"adult",324,NA,"C_T"
"30074","M","D",16,800,0.866666666666667,NA,"adult",324,NA,"C_T"
"30074","M","D",17,467,0.817647058823529,NA,"adult",324,NA,"C_T"
"30074","M","D",18,400,0.933333333333333,NA,"adult",324,NA,"C_T"
"30074","M","D",20,33,0.99438202247191,NA,"adult",324,NA,"C_T"
"30074","M","D",21,767,0.870786516853933,NA,"adult",324,NA,"C_T"
"30074","M","D",22,400,0.932584269662921,NA,"adult",324,NA,"C_T"
"30074","M","A",23,NA,0.943820224719101,NA,"adult",324,NA,"off_signer"
"30074","M","D",24,367,0.938202247191011,NA,"adult",324,NA,"C_T"
"30074","M","D",25,167,0.971910112359551,NA,"adult",324,NA,"C_T"
"30074","M","D",26,400,0.933333333333333,NA,"adult",324,NA,"C_T"
"30074","M","A",27,NA,1,NA,"adult",324,NA,"off_signer"
"30074","M","D",29,233,0.961111111111111,NA,"adult",324,NA,"C_T"
"30074","M","D",30,533,0.911111111111111,NA,"adult",324,NA,"C_T"
"30074","M","D",31,367,0.816091954022989,NA,"adult",324,NA,"C_T"
"30074","M","D",32,500,0.909638554216867,NA,"adult",324,NA,"C_T"
"30074","M","D",33,133,0.89375,NA,"adult",324,NA,"C_T"
"30074","M","D",34,33,0.891566265060241,NA,"adult",324,NA,"C_T"
"30074","M","D",35,100,0.983333333333333,NA,"adult",324,NA,"C_T"
"30074","M","A",36,NA,1,NA,"adult",324,NA,"off_signer"
"30075","F","D",2,1500,0.730337078651685,NA,"adult",358,NA,"C_T"
"30075","F","D",3,733,0.607954545454545,NA,"adult",358,NA,"C_T"
"30075","F","D",4,300,0.595505617977528,NA,"adult",358,NA,"C_T"
"30075","F","D",5,500,0.726190476190476,NA,"adult",358,NA,"C_T"
"30075","F","D",6,667,0.607142857142857,NA,"adult",358,NA,"C_T"
"30075","F","D",7,1433,0.747058823529412,NA,"adult",358,NA,"C_T"
"30075","F","D",8,1700,0.707865168539326,NA,"adult",358,NA,"C_T"
"30075","F","D",9,733,0.876404494382023,NA,"adult",358,NA,"C_T"
"30075","F","D",11,1633,0.711764705882353,NA,"adult",358,NA,"C_T"
"30075","F","D",12,433,0.81875,NA,"adult",358,NA,"C_T"
"30075","F","D",13,667,0.883720930232558,NA,"adult",358,NA,"C_T"
"30075","F","D",14,1267,0.779069767441861,NA,"adult",358,NA,"C_T"
"30075","F","D",15,100,0.78735632183908,NA,"adult",358,NA,"C_T"
"30075","F","D",16,567,0.645348837209302,NA,"adult",358,NA,"C_T"
"30075","F","D",17,333,0.819767441860465,NA,"adult",358,NA,"C_T"
"30075","F","D",18,633,0.890804597701149,NA,"adult",358,NA,"C_T"
"30075","F","D",20,200,0.682352941176471,NA,"adult",358,NA,"C_T"
"30075","F","D",21,233,0.8125,NA,"adult",358,NA,"C_T"
"30075","F","D",22,533,0.911111111111111,NA,"adult",358,NA,"C_T"
"30075","F","D",23,633,0.890804597701149,NA,"adult",358,NA,"C_T"
"30075","F","D",24,200,0.78735632183908,NA,"adult",358,NA,"C_T"
"30075","F","A",25,NA,0.767441860465116,NA,"adult",358,NA,"off_signer"
"30075","F","A",26,0,0.847560975609756,NA,"adult",358,NA,"off_signer"
"30075","F","D",27,300,0.808988764044944,NA,"adult",358,NA,"C_T"
"30075","F","D",29,67,0.805882352941176,NA,"adult",358,NA,"C_T"
"30075","F","D",30,33,0.994444444444444,NA,"adult",358,NA,"C_T"
"30075","F","D",31,67,0.791666666666667,NA,"adult",358,NA,"C_T"
"30075","F","A",32,NA,0.795454545454545,NA,"adult",358,NA,"off_signer"
"30075","F","D",33,167,0.886075949367089,NA,"adult",358,NA,"C_T"
"30075","F","D",34,167,0.779761904761905,NA,"adult",358,NA,"C_T"
"30075","F","D",35,667,0.808988764044944,NA,"adult",358,NA,"C_T"
"30075","F","A",36,NA,0.9,NA,"adult",358,NA,"off_signer"
"30078","F","D",2,733,0.601123595505618,NA,"adult",324,NA,"C_T"
"30078","F","D",3,1100,0.629213483146067,NA,"adult",324,NA,"C_T"
"30078","F","D",4,1100,0.609195402298851,NA,"adult",324,NA,"C_T"
"30078","F","D",5,767,0.564705882352941,NA,"adult",324,NA,"C_T"
"30078","F","D",6,867,0.758620689655172,NA,"adult",324,NA,"C_T"
"30078","F","D",7,667,0.682352941176471,NA,"adult",324,NA,"C_T"
"30078","F","D",8,800,0.583333333333333,NA,"adult",324,NA,"C_T"
"30078","F","D",9,767,0.647058823529412,NA,"adult",324,NA,"C_T"
"30078","F","D",11,667,0.556179775280899,NA,"adult",324,NA,"C_T"
"30078","F","D",12,500,0.601190476190476,NA,"adult",324,NA,"C_T"
"30078","F","D",13,567,0.623529411764706,NA,"adult",324,NA,"C_T"
"30078","F","D",14,667,0.590909090909091,NA,"adult",324,NA,"C_T"
"30078","F","D",15,767,0.656976744186046,NA,"adult",324,NA,"C_T"
"30078","F","D",16,467,0.593023255813954,NA,"adult",324,NA,"C_T"
"30078","F","D",17,567,0.571428571428571,NA,"adult",324,NA,"C_T"
"30078","F","D",18,567,0.55952380952381,NA,"adult",324,NA,"C_T"
"30078","F","D",20,467,0.632530120481928,NA,"adult",324,NA,"C_T"
"30078","F","D",21,367,0.6875,NA,"adult",324,NA,"C_T"
"30078","F","D",22,1067,0.698863636363636,NA,"adult",324,NA,"C_T"
"30078","F","D",23,333,0.662921348314607,NA,"adult",324,NA,"C_T"
"30078","F","D",24,733,0.645833333333333,NA,"adult",324,NA,"C_T"
"30078","F","D",25,2367,0.563953488372093,NA,"adult",324,NA,"C_T"
"30078","F","D",26,500,0.570588235294118,NA,"adult",324,NA,"C_T"
"30078","F","D",27,1600,0.598765432098765,NA,"adult",324,NA,"C_T"
"30078","F","D",29,433,0.589887640449438,NA,"adult",324,NA,"C_T"
"30078","F","D",30,367,0.583333333333333,NA,"adult",324,NA,"C_T"
"30078","F","D",31,433,0.570588235294118,NA,"adult",324,NA,"C_T"
"30078","F","D",32,367,0.869047619047619,NA,"adult",324,NA,"C_T"
"30078","F","D",33,533,0.581395348837209,NA,"adult",324,NA,"C_T"
"30078","F","D",34,167,0.685393258426966,NA,"adult",324,NA,"C_T"
"30078","F","D",35,200,0.718390804597701,NA,"adult",324,NA,"C_T"
"30078","F","A",36,NA,0.676136363636364,NA,"adult",324,NA,"off_signer"
"30079","M","D",2,1533,0.255555555555556,NA,"adult",325,NA,"C_D"
"30079","M","D",3,1033,0.747191011235955,NA,"adult",325,NA,"C_T"
"30079","M","D",4,NA,0.5,NA,"adult",325,NA,"C_T"
"30079","M","D",5,2333,0.611111111111111,NA,"adult",325,NA,"C_T"
"30079","M","D",6,700,0.747191011235955,NA,"adult",325,NA,"C_T"
"30079","M","D",7,1900,0.683333333333333,NA,"adult",325,NA,"C_T"
"30079","M","D",8,2000,0.666666666666667,NA,"adult",325,NA,"C_T"
"30079","M","D",9,1500,0.747191011235955,NA,"adult",325,NA,"C_T"
"30079","M","D",11,2167,0.638888888888889,NA,"adult",325,NA,"C_T"
"30079","M","D",12,1833,0.694444444444444,NA,"adult",325,NA,"C_T"
"30079","M","D",13,1200,0.793103448275862,NA,"adult",325,NA,"C_T"
"30079","M","D",14,1667,0.722222222222222,NA,"adult",325,NA,"C_T"
"30079","M","D",15,1467,0.642045454545455,NA,"adult",325,NA,"C_T"
"30079","M","D",16,NA,0.5,NA,"adult",325,NA,"C_D"
"30079","M","D",17,1833,0.691011235955056,NA,"adult",325,NA,"C_T"
"30079","M","D",18,2000,0.666666666666667,NA,"adult",325,NA,"C_T"
"30079","M","D",20,1000,0.833333333333333,NA,"adult",325,NA,"C_T"
"30079","M","D",21,2300,0.598837209302326,NA,"adult",325,NA,"C_T"
"30079","M","D",22,1600,0.733333333333333,NA,"adult",325,NA,"C_T"
"30079","M","D",23,367,0.938888888888889,NA,"adult",325,NA,"C_T"
"30079","M","D",24,1233,0.794444444444444,NA,"adult",325,NA,"C_T"
"30079","M","D",25,600,0.9,NA,"adult",325,NA,"C_T"
"30079","M","D",26,1067,0.822222222222222,NA,"adult",325,NA,"C_T"
"30079","M","D",27,800,0.133333333333333,NA,"adult",325,NA,"C_D"
"30079","M","D",29,833,0.861111111111111,NA,"adult",325,NA,"C_T"
"30079","M","D",30,467,0.704545454545455,NA,"adult",325,NA,"C_T"
"30079","M","D",31,300,0.95,NA,"adult",325,NA,"C_T"
"30079","M","D",32,433,0.927777777777778,NA,"adult",325,NA,"C_T"
"30079","M","D",33,600,0.9,NA,"adult",325,NA,"C_T"
"30079","M","D",34,433,0.926136363636364,NA,"adult",325,NA,"C_T"
"30079","M","D",35,1133,0.811111111111111,NA,"adult",325,NA,"C_T"
"30079","M","D",36,733,0.848314606741573,NA,"adult",325,NA,"C_T"
"30081","M","D",2,2067,0.623595505617977,NA,"adult",530,NA,"C_T"
"30081","M","D",3,967,0.585227272727273,NA,"adult",530,NA,"C_T"
"30081","M","D",4,567,0.797752808988764,NA,"adult",530,NA,"C_T"
"30081","M","D",5,1000,0.634831460674157,NA,"adult",530,NA,"C_T"
"30081","M","D",6,533,0.674157303370786,NA,"adult",530,NA,"C_T"
"30081","M","D",7,500,0.647727272727273,NA,"adult",530,NA,"C_T"
"30081","M","D",8,1100,0.642045454545455,NA,"adult",530,NA,"C_T"
"30081","M","D",9,600,0.660919540229885,NA,"adult",530,NA,"C_T"
"30081","M","D",11,867,0.651685393258427,NA,"adult",530,NA,"C_T"
"30081","M","D",12,367,0.642045454545455,NA,"adult",530,NA,"C_T"
"30081","M","D",13,700,0.668539325842697,NA,"adult",530,NA,"C_T"
"30081","M","D",14,833,0.634831460674157,NA,"adult",530,NA,"C_T"
"30081","M","D",15,400,0.642045454545455,NA,"adult",530,NA,"C_T"
"30081","M","D",16,300,0.664772727272727,NA,"adult",530,NA,"C_T"
"30081","M","D",17,367,0.649425287356322,NA,"adult",530,NA,"C_T"
"30081","M","D",18,1100,0.659090909090909,NA,"adult",530,NA,"C_T"
"30081","M","D",20,200,0.683908045977011,NA,"adult",530,NA,"C_T"
"30081","M","D",21,233,0.636363636363636,NA,"adult",530,NA,"C_T"
"30081","M","D",22,333,0.649425287356322,NA,"adult",530,NA,"C_T"
"30081","M","D",23,967,0.792134831460674,NA,"adult",530,NA,"C_T"
"30081","M","D",24,1433,0.649425287356322,NA,"adult",530,NA,"C_T"
"30081","M","D",25,633,0.683908045977011,NA,"adult",530,NA,"C_T"
"30081","M","D",26,433,0.689655172413793,NA,"adult",530,NA,"C_T"
"30081","M","D",27,1033,0.681818181818182,NA,"adult",530,NA,"C_T"
"30081","M","D",29,333,0.695402298850575,NA,"adult",530,NA,"C_T"
"30081","M","D",30,333,0.681818181818182,NA,"adult",530,NA,"C_T"
"30081","M","D",31,167,0.710227272727273,NA,"adult",530,NA,"C_T"
"30081","M","D",32,333,0.698863636363636,NA,"adult",530,NA,"C_T"
"30081","M","D",33,233,0.670454545454545,NA,"adult",530,NA,"C_T"
"30081","M","D",34,233,0.695402298850575,NA,"adult",530,NA,"C_T"
"30081","M","D",35,1067,0.767045454545455,NA,"adult",530,NA,"C_T"
"30081","M","D",36,467,0.653409090909091,NA,"adult",530,NA,"C_T"
"30085","F","D",2,2967,0.505555555555556,50,"child",19,"deaf","C_T"
"30085","F","D",3,2400,0.455056179775281,50,"child",19,"deaf","C_D"
"30085","F","A",4,NA,0.556179775280899,50,"child",19,"deaf","off_signer"
"30085","F","D",5,933,0.5,50,"child",19,"deaf","C_D"
"30085","F","D",6,1533,0.644578313253012,50,"child",19,"deaf","C_T"
"30085","F","A",8,0,0.395522388059701,50,"child",19,"deaf","off_signer"
"30085","F","D",9,1367,0.601123595505618,50,"child",19,"deaf","C_T"
"30085","F","A",12,0,0.601123595505618,50,"child",19,"deaf","off_signer"
"30085","F","D",13,1000,0.652941176470588,50,"child",19,"deaf","C_T"
"30085","F","D",14,NA,0.5,50,"child",19,"deaf","C_D"
"30085","F","D",15,500,0.541176470588235,50,"child",19,"deaf","C_D"
"30085","F","D",16,1233,0.764367816091954,50,"child",19,"deaf","C_T"
"30085","F","D",17,1700,0.620689655172414,50,"child",19,"deaf","C_T"
"30085","F","D",18,933,0.579545454545455,50,"child",19,"deaf","C_T"
"30086","F","A",4,67,0.427710843373494,47,"child",20,"hearing","off_signer"
"30086","F","D",5,2200,0.370786516853933,47,"child",20,"hearing","C_D"
"30086","F","D",6,1367,0.517441860465116,47,"child",20,"hearing","C_D"
"30086","F","D",7,1267,0.585227272727273,47,"child",20,"hearing","C_T"
"30086","F","D",8,NA,0.5,47,"child",20,"hearing","no_shift"
"30086","F","D",9,NA,0.5,47,"child",20,"hearing","C_T"
"30086","F","D",11,1400,0.453488372093023,47,"child",20,"hearing","C_D"
"30086","F","A",12,67,0.27906976744186,47,"child",20,"hearing","off_signer"
"30086","F","D",14,1467,0.494252873563218,47,"child",20,"hearing","C_T"
"30086","F","D",15,767,0.477011494252874,47,"child",20,"hearing","C_D"
"30086","F","D",20,800,0.564705882352941,47,"child",20,"hearing","C_D"
"30088","F","D",2,1633,0.342696629213483,43,"child",22,"hearing","C_D"
"30088","F","D",4,NA,0.5,43,"child",22,"hearing","no_shift"
"30088","F","A",5,NA,0.405555555555556,43,"child",22,"hearing","off_signer"
"30088","F","D",6,1367,0.465116279069767,43,"child",22,"hearing","C_T"
"30088","F","D",9,267,0.62,43,"child",22,"hearing","C_D"
"30088","F","D",12,1533,0.67816091954023,43,"child",22,"hearing","C_D"
"30088","F","D",14,NA,0.5,43,"child",22,"hearing","no_shift"
"30088","F","D",15,1300,0.51123595505618,43,"child",22,"hearing","C_T"
"30088","F","D",16,1900,0.619318181818182,43,"child",22,"hearing","C_D"
